Subject,Trial,Sex,Age,Group,Years EDU,LIS,Corsi Span,Raven Raw,Trial_index, Reaction_Time, Response_string, Correct_response, Correctness,ID,observation,AFirst,ALast,BFirst,BLast,Copy,CpyAS4,CpyAS6,CpyAT4,CpyAT6,CpyBS4,CpyBS6,CpyBT4,CpyBT6,SomeA,SomeB
1,1,M,25,HEARING,13,ND,5,34,85,1.63, N, N, CORRECT,1,1,1,1,1,1,1,1,1,1,1,1,1,1,1,1,1
1,2,M,25,HEARING,13,ND,5,34,59,1.28, N, N, CORRECT,1,2,1,1,1,1,1,1,1,1,1,1,1,1,1,1,1
1,3,M,25,HEARING,13,ND,5,34,26,1.04, C, N, INCORRECT,1,3,1,1,1,1,1,1,1,1,1,1,1,1,1,1,1
1,4,M,25,HEARING,13,ND,5,34,4,2.045, C, N, INCORRECT,1,4,1,1,1,1,1,1,1,1,1,1,1,1,1,1,1
1,5,M,25,HEARING,13,ND,5,34,34,1.28, N, N, CORRECT,1,5,1,1,1,1,1,1,1,1,1,1,1,1,1,1,1
1,6,M,25,HEARING,13,ND,5,34,16,1.065, N, N, CORRECT,1,6,1,1,1,1,1,1,1,1,1,1,1,1,1,1,1
1,7,M,25,HEARING,13,ND,5,34,43,2.26, C, C, CORRECT,1,7,1,1,1,1,1,1,1,1,1,1,1,1,1,1,1
1,8,M,25,HEARING,13,ND,5,34,74,1.215, N, N, CORRECT,1,8,1,1,1,1,1,1,1,1,1,1,1,1,1,1,1
1,9,M,25,HEARING,13,ND,5,34,73,1.325, N, C, INCORRECT,1,9,1,1,1,1,1,1,1,1,1,1,1,1,1,1,1
1,10,M,25,HEARING,13,ND,5,34,25,2.13, C, N, INCORRECT,1,10,1,1,1,1,1,1,1,1,1,1,1,1,1,1,1
1,11,M,25,HEARING,13,ND,5,34,56,1.205, C, C, CORRECT,1,11,1,1,1,1,1,1,1,1,1,1,1,1,1,1,1
1,12,M,25,HEARING,13,ND,5,34,80,4.48, C, N, INCORRECT,1,12,1,1,1,1,1,1,1,1,1,1,1,1,1,1,1
1,13,M,25,HEARING,13,ND,5,34,23,1.385, N, C, INCORRECT,1,13,1,1,1,1,1,1,1,1,1,1,1,1,1,1,1
1,14,M,25,HEARING,13,ND,5,34,7,1.825, N, N, CORRECT,1,14,1,1,1,1,1,1,1,1,1,1,1,1,1,1,1
1,15,M,25,HEARING,13,ND,5,34,41,7.375, N, N, CORRECT,1,15,1,1,1,1,1,1,1,1,1,1,1,1,1,1,1
1,16,M,25,HEARING,13,ND,5,34,76,2.245, C, N, INCORRECT,1,16,1,1,1,1,1,1,1,1,1,1,1,1,1,1,1
1,17,M,25,HEARING,13,ND,5,34,82,1.05, N, N, CORRECT,1,17,1,1,1,1,1,1,1,1,1,1,1,1,1,1,1
1,18,M,25,HEARING,13,ND,5,34,35,1.84, C, C, CORRECT,1,18,1,1,1,1,1,1,1,1,1,1,1,1,1,1,1
1,19,M,25,HEARING,13,ND,5,34,70,4.78, N, N, CORRECT,1,19,1,1,1,1,1,1,1,1,1,1,1,1,1,1,1
1,20,M,25,HEARING,13,ND,5,34,67,1.97, C, C, CORRECT,1,20,1,1,1,1,1,1,1,1,1,1,1,1,1,1,1
1,21,M,25,HEARING,13,ND,5,34,46,1.925, C, C, CORRECT,1,21,1,1,1,1,1,1,1,1,1,1,1,1,1,1,1
1,22,M,25,HEARING,13,ND,5,34,30,2.295, C, N, INCORRECT,1,22,1,1,1,1,1,1,1,1,1,1,1,1,1,1,1
1,23,M,25,HEARING,13,ND,5,34,40,5.39, N, C, INCORRECT,1,23,1,1,1,1,1,1,1,1,1,1,1,1,1,1,1
1,24,M,25,HEARING,13,ND,5,34,33,2.525, N, N, CORRECT,1,24,1,1,1,1,1,1,1,1,1,1,1,1,1,1,1
1,25,M,25,HEARING,13,ND,5,34,12,1.745, N, N, CORRECT,1,25,1,1,1,1,1,1,1,1,1,1,1,1,1,1,1
1,26,M,25,HEARING,13,ND,5,34,45,4.015, C, N, INCORRECT,1,26,1,1,1,1,1,1,1,1,1,1,1,1,1,1,1
1,27,M,25,HEARING,13,ND,5,34,44,1.335, C, C, CORRECT,1,27,1,1,1,1,1,1,1,1,1,1,1,1,1,1,1
1,28,M,25,HEARING,13,ND,5,34,83,4.4, N, N, CORRECT,1,28,1,1,1,1,1,1,1,1,1,1,1,1,1,1,1
1,29,M,25,HEARING,13,ND,5,34,65,2.335, C, N, INCORRECT,1,29,1,1,1,1,1,1,1,1,1,1,1,1,1,1,1
1,30,M,25,HEARING,13,ND,5,34,42,1.2, C, C, CORRECT,1,30,1,1,1,1,1,1,1,1,1,1,1,1,1,1,1
1,31,M,25,HEARING,13,ND,5,34,79,3.19, C, N, INCORRECT,1,31,1,1,1,1,1,1,1,1,1,1,1,1,1,1,1
1,32,M,25,HEARING,13,ND,5,34,10,1.115, N, N, CORRECT,1,32,1,1,1,1,1,1,1,1,1,1,1,1,1,1,1
1,33,M,25,HEARING,13,ND,5,34,55,2.825, N, N, CORRECT,1,33,1,1,1,1,1,1,1,1,1,1,1,1,1,1,1
1,34,M,25,HEARING,13,ND,5,34,71,3.375, C, C, CORRECT,1,34,1,1,1,1,1,1,1,1,1,1,1,1,1,1,1
1,35,M,25,HEARING,13,ND,5,34,69,2.665, N, N, CORRECT,1,35,1,1,1,1,1,1,1,1,1,1,1,1,1,1,1
1,36,M,25,HEARING,13,ND,5,34,86,5.65, C, N, INCORRECT,1,36,1,1,1,0,1,1,1,1,1,1,1,1,1,1,1
1,37,M,25,HEARING,13,ND,5,34,52,1.3, N, N, CORRECT,1,37,1,1,1,0,1,1,1,1,1,1,1,1,1,1,1
1,38,M,25,HEARING,13,ND,5,34,9,0.84, C, C, CORRECT,1,38,1,1,1,0,1,1,1,1,1,1,1,1,1,1,1
1,39,M,25,HEARING,13,ND,5,34,24,1.13, N, N, CORRECT,1,39,1,1,1,0,1,1,1,1,1,1,1,1,1,1,1
1,40,M,25,HEARING,13,ND,5,34,37,1.145, N, N, CORRECT,1,40,1,1,1,0,1,1,1,1,1,1,1,1,1,1,1
1,41,M,25,HEARING,13,ND,5,34,13,1.16, C, N, INCORRECT,1,41,1,1,1,0,1,1,1,1,1,1,1,1,1,1,1
1,42,M,25,HEARING,13,ND,5,34,1,6.855, C, C, CORRECT,1,42,1,1,1,0,1,1,1,1,1,1,1,1,1,1,1
1,43,M,25,HEARING,13,ND,5,34,60,0.81, C, C, CORRECT,1,43,1,1,1,0,1,1,1,1,1,1,1,1,1,1,1
1,44,M,25,HEARING,13,ND,5,34,21,1.915, C, N, INCORRECT,1,44,1,1,0,0,1,1,1,1,1,1,1,1,1,0,0
1,45,M,25,HEARING,13,ND,5,34,17,1.19, C, C, CORRECT,1,45,0,1,0,0,1,1,1,1,1,1,1,1,1,0,0
1,46,M,25,HEARING,13,ND,5,34,48,0.845, N, N, CORRECT,1,46,0,1,0,0,1,1,1,1,1,1,1,0,1,0,0
1,47,M,25,HEARING,13,ND,5,34,32,3.56, N, C, INCORRECT,1,47,0,1,0,0,1,0,1,1,1,1,1,0,1,0,0
1,48,M,25,HEARING,13,ND,5,34,72,2.695, C, C, CORRECT,1,48,0,1,0,0,1,0,0,0,0,0,0,0,0,0,0
1,49,M,25,HEARING,13,ND,5,34,50,1.55, C, N, INCORRECT,1,49,0,1,0,0,1,0,0,0,0,0,0,0,0,0,0
1,50,M,25,HEARING,13,ND,5,34,63,0.975, N, C, INCORRECT,1,50,0,1,0,0,1,0,0,0,0,0,0,0,0,0,0
1,51,M,25,HEARING,13,ND,5,34,14,5.255, C, C, CORRECT,1,51,0,1,0,0,1,0,0,0,0,0,0,0,0,0,0
1,52,M,25,HEARING,13,ND,5,34,75,1.615, N, C, INCORRECT,1,52,0,1,0,0,1,0,0,0,0,0,0,0,0,0,0
1,53,M,25,HEARING,13,ND,5,34,28,1.935, C, C, CORRECT,1,53,0,0,0,0,1,0,0,0,0,0,0,0,0,0,0
1,54,M,25,HEARING,13,ND,5,34,77,1.56, C, C, CORRECT,1,54,0,0,0,0,1,0,0,0,0,0,0,0,0,0,0
1,55,M,25,HEARING,13,ND,5,34,51,1.395, N, N, CORRECT,1,55,0,0,0,0,1,0,0,0,0,0,0,0,0,0,0
1,56,M,25,HEARING,13,ND,5,34,31,0.83, N, N, CORRECT,1,56,0,0,0,0,1,0,0,0,0,0,0,0,0,0,0
1,57,M,25,HEARING,13,ND,5,34,19,1.43, N, N, CORRECT,1,57,0,0,0,0,1,0,0,0,0,0,0,0,0,0,0
1,58,M,25,HEARING,13,ND,5,34,29,1.595, N, N, CORRECT,1,58,0,0,0,0,1,0,0,0,0,0,0,0,0,0,0
1,59,M,25,HEARING,13,ND,5,34,6,1.265, C, N, INCORRECT,1,59,0,0,0,0,0,0,0,0,0,0,0,0,0,0,0
1,60,M,25,HEARING,13,ND,5,34,53,4.93, N, N, CORRECT,1,60,0,0,0,0,0,0,0,0,0,0,0,0,0,0,0
1,61,M,25,HEARING,13,ND,5,34,39,2.615, C, N, INCORRECT,1,61,0,0,0,0,0,0,0,0,0,0,0,0,0,0,0
1,62,M,25,HEARING,13,ND,5,34,27,0.875, N, C, INCORRECT,1,62,0,0,0,0,0,0,0,0,0,0,0,0,0,0,0
1,63,M,25,HEARING,13,ND,5,34,68,1.08, C, C, CORRECT,1,63,0,0,0,0,0,0,0,0,0,0,0,0,0,0,0
1,64,M,25,HEARING,13,ND,5,34,18,2.78, C, N, INCORRECT,1,64,0,0,0,0,0,0,0,0,0,0,0,0,0,0,0
1,65,M,25,HEARING,13,ND,5,34,36,2.44, N, C, INCORRECT,1,65,0,0,0,0,0,0,0,0,0,0,0,0,0,0,0
1,66,M,25,HEARING,13,ND,5,34,47,1.875, C, C, CORRECT,1,66,0,0,0,0,0,0,0,0,0,0,0,0,0,0,0
1,67,M,25,HEARING,13,ND,5,34,20,2.125, N, N, CORRECT,1,67,0,0,0,0,0,0,0,0,0,0,0,0,0,0,0
1,68,M,25,HEARING,13,ND,5,34,58,0.9, C, N, INCORRECT,1,68,0,0,0,0,0,0,0,0,0,0,0,0,0,0,0
1,69,M,25,HEARING,13,ND,5,34,61,0.84, N, N, CORRECT,1,69,0,0,0,0,0,0,0,0,0,0,0,0,0,0,0
1,70,M,25,HEARING,13,ND,5,34,5,1.915, N, C, INCORRECT,1,70,0,0,0,0,0,0,0,0,0,0,0,0,0,0,0
1,71,M,25,HEARING,13,ND,5,34,22,1.02, N, N, CORRECT,1,71,0,0,0,0,0,0,0,0,0,0,0,0,0,0,0
1,72,M,25,HEARING,13,ND,5,34,78,0.6, C, C, CORRECT,1,72,0,0,0,0,0,0,0,0,0,0,0,0,0,0,0
1,73,M,25,HEARING,13,ND,5,34,57,0.79, N, N, CORRECT,1,73,0,0,0,0,0,0,0,0,0,0,0,0,0,0,0
1,74,M,25,HEARING,13,ND,5,34,3,1.06, N, N, CORRECT,1,74,0,0,0,0,0,0,0,0,0,0,0,0,0,0,0
1,75,M,25,HEARING,13,ND,5,34,8,1, N, N, CORRECT,1,75,0,0,0,0,0,0,0,0,0,0,0,0,0,0,0
1,76,M,25,HEARING,13,ND,5,34,81,0.895, C, C, CORRECT,1,76,0,0,0,0,0,0,0,0,0,0,0,0,0,0,0
1,77,M,25,HEARING,13,ND,5,34,0,1.77, C, C, CORRECT,1,77,0,0,0,0,0,0,0,0,0,0,0,0,0,0,0
1,78,M,25,HEARING,13,ND,5,34,84,0.44, N, N, CORRECT,1,78,0,0,0,0,0,0,0,0,0,0,0,0,0,0,0
1,79,M,25,HEARING,13,ND,5,34,38,1.82, C, C, CORRECT,1,79,0,0,0,0,0,0,0,0,0,0,0,0,0,0,0
1,80,M,25,HEARING,13,ND,5,34,2,1.505, C, C, CORRECT,1,80,0,0,0,0,0,0,0,0,0,0,0,0,0,0,0
1,81,M,25,HEARING,13,ND,5,34,62,2.17, N, N, CORRECT,1,81,0,0,0,0,0,0,0,0,0,0,0,0,0,0,0
1,82,M,25,HEARING,13,ND,5,34,15,2.585, N, C, INCORRECT,1,82,0,0,0,0,0,0,0,0,0,0,0,0,0,0,0
1,83,M,25,HEARING,13,ND,5,34,66,1.26, N, N, CORRECT,1,83,0,0,0,0,0,0,0,0,0,0,0,0,0,0,0
1,84,M,25,HEARING,13,ND,5,34,64,0.595, C, C, CORRECT,1,84,0,0,0,0,0,0,0,0,0,0,0,0,0,0,0
1,85,M,25,HEARING,13,ND,5,34,54,4.005, C, C, CORRECT,1,85,0,0,0,0,0,0,0,0,0,0,0,0,0,0,0
1,86,M,25,HEARING,13,ND,5,34,11,3.815, C, N, INCORRECT,1,86,0,0,0,0,0,0,0,0,0,0,0,0,0,0,0
1,87,M,25,HEARING,13,ND,5,34,49,0.81, N, C, INCORRECT,1,87,0,0,0,0,0,0,0,0,0,0,0,0,0,0,0
2,1,F,25,HEARING,16,ND,6,29,28,0.81, N, N, CORRECT,2,1,1,1,1,1,1,1,1,1,1,1,1,1,1,1,1
2,2,F,25,HEARING,16,ND,6,29,19,0.77, N, N, CORRECT,2,2,1,1,1,1,1,1,1,1,1,1,1,1,1,1,1
2,3,F,25,HEARING,16,ND,6,29,51,0.785, C, C, CORRECT,2,3,1,1,1,1,1,1,1,1,1,1,1,1,1,1,1
2,4,F,25,HEARING,16,ND,6,29,55,0.745, N, N, CORRECT,2,4,1,1,1,1,1,1,1,1,1,1,1,1,1,1,1
2,5,F,25,HEARING,16,ND,6,29,80,0.945, N, N, CORRECT,2,5,1,1,1,1,1,1,1,1,1,1,1,1,1,1,1
2,6,F,25,HEARING,16,ND,6,29,38,0.695, N, N, CORRECT,2,6,1,1,1,1,1,1,1,1,1,1,1,1,1,1,1
2,7,F,25,HEARING,16,ND,6,29,49,0.945, N, N, CORRECT,2,7,1,1,1,1,1,1,1,1,1,1,1,1,1,1,1
2,8,F,25,HEARING,16,ND,6,29,78,0.86, N, N, CORRECT,2,8,1,1,1,1,1,1,1,1,1,1,1,1,1,1,1
2,9,F,25,HEARING,16,ND,6,29,31,0.635, N, N, CORRECT,2,9,1,1,1,1,1,1,1,1,1,1,1,1,1,1,1
2,10,F,25,HEARING,16,ND,6,29,85,0.76, N, N, CORRECT,2,10,1,1,1,1,1,1,1,1,1,1,1,1,1,1,1
2,11,F,25,HEARING,16,ND,6,29,10,0.85, C, C, CORRECT,2,11,1,1,1,1,1,1,1,1,1,1,1,1,1,1,1
2,12,F,25,HEARING,16,ND,6,29,84,0.735, N, N, CORRECT,2,12,1,1,1,1,1,1,1,1,1,1,1,1,1,1,1
2,13,F,25,HEARING,16,ND,6,29,46,0.82, N, N, CORRECT,2,13,1,1,1,1,1,1,1,1,1,1,1,1,1,1,1
2,14,F,25,HEARING,16,ND,6,29,5,0.675, N, N, CORRECT,2,14,1,1,1,1,1,1,1,1,1,1,1,1,1,1,1
2,15,F,25,HEARING,16,ND,6,29,30,0.715, C, C, CORRECT,2,15,1,1,1,1,1,1,1,1,1,1,1,1,1,1,1
2,16,F,25,HEARING,16,ND,6,29,33,0.62, C, C, CORRECT,2,16,1,1,1,1,1,1,1,1,1,1,1,1,1,1,1
2,17,F,25,HEARING,16,ND,6,29,70,0.575, C, C, CORRECT,2,17,1,1,1,1,1,1,1,1,1,1,1,1,1,1,1
2,18,F,25,HEARING,16,ND,6,29,50,0.575, C, C, CORRECT,2,18,1,1,1,1,1,1,1,1,1,1,1,1,1,1,1
2,19,F,25,HEARING,16,ND,6,29,47,0.81, N, N, CORRECT,2,19,1,1,1,1,1,1,1,1,1,1,1,1,1,1,1
2,20,F,25,HEARING,16,ND,6,29,43,0.555, C, C, CORRECT,2,20,1,1,1,1,1,1,1,1,1,1,1,1,1,1,1
2,21,F,25,HEARING,16,ND,6,29,67,0.525, C, C, CORRECT,2,21,1,1,1,1,1,1,1,1,1,1,1,1,1,1,1
2,22,F,25,HEARING,16,ND,6,29,76,0.83, C, C, CORRECT,2,22,1,1,1,1,1,1,1,1,1,1,1,1,1,1,1
2,23,F,25,HEARING,16,ND,6,29,27,0.85, N, N, CORRECT,2,23,1,1,1,1,1,1,1,1,1,1,1,1,1,1,1
2,24,F,25,HEARING,16,ND,6,29,54,0.69, N, N, CORRECT,2,24,1,1,1,1,1,1,1,1,1,1,1,1,1,1,1
2,25,F,25,HEARING,16,ND,6,29,56,0.75, N, N, CORRECT,2,25,1,1,1,1,1,1,1,1,1,1,1,1,1,1,1
2,26,F,25,HEARING,16,ND,6,29,65,0.56, C, C, CORRECT,2,26,1,1,1,1,1,1,1,1,1,1,1,1,1,1,1
2,27,F,25,HEARING,16,ND,6,29,58,0.795, N, N, CORRECT,2,27,1,1,1,1,1,1,1,1,1,1,1,1,1,1,1
2,28,F,25,HEARING,16,ND,6,29,6,0.765, N, N, CORRECT,2,28,1,1,1,1,1,1,1,1,1,1,1,1,1,1,1
2,29,F,25,HEARING,16,ND,6,29,37,1.56, N, N, CORRECT,2,29,1,1,1,1,1,1,1,1,1,1,1,1,1,1,1
2,30,F,25,HEARING,16,ND,6,29,7,0.695, N, N, CORRECT,2,30,1,1,1,1,1,1,1,1,1,1,1,1,1,1,1
2,31,F,25,HEARING,16,ND,6,29,15,0.79, N, N, CORRECT,2,31,1,1,1,1,1,1,1,1,1,1,1,1,1,1,1
2,32,F,25,HEARING,16,ND,6,29,4,0.62, C, C, CORRECT,2,32,1,1,1,1,1,1,1,1,1,1,1,1,1,1,1
2,33,F,25,HEARING,16,ND,6,29,23,0.625, N, N, CORRECT,2,33,1,1,1,1,1,1,1,1,1,1,1,1,1,1,1
2,34,F,25,HEARING,16,ND,6,29,63,0.72, C, C, CORRECT,2,34,1,1,1,1,1,1,1,1,1,1,1,1,1,1,1
2,35,F,25,HEARING,16,ND,6,29,68,0.795, N, N, CORRECT,2,35,1,1,1,1,1,1,1,1,1,1,1,1,1,1,1
2,36,F,25,HEARING,16,ND,6,29,34,0.695, C, C, CORRECT,2,36,1,1,1,1,1,1,1,1,1,1,1,1,1,1,1
2,37,F,25,HEARING,16,ND,6,29,45,0.715, N, N, CORRECT,2,37,1,1,1,1,1,1,1,1,1,1,1,1,1,1,1
2,38,F,25,HEARING,16,ND,6,29,14,0.855, N, N, CORRECT,2,38,1,1,1,1,1,1,1,1,1,1,1,1,1,1,1
2,39,F,25,HEARING,16,ND,6,29,75,0.775, N, N, CORRECT,2,39,1,1,1,1,1,1,1,1,1,1,1,1,1,0,0
2,40,F,25,HEARING,16,ND,6,29,81,0.615, N, N, CORRECT,2,40,0,1,1,1,1,1,1,1,1,1,1,1,1,0,0
2,41,F,25,HEARING,16,ND,6,29,53,0.6, N, N, CORRECT,2,41,0,1,1,1,1,1,1,1,1,1,1,1,1,0,0
2,42,F,25,HEARING,16,ND,6,29,66,0.61, C, C, CORRECT,2,42,0,0,1,1,1,1,1,1,1,1,1,1,1,0,0
2,43,F,25,HEARING,16,ND,6,29,13,0.895, C, C, CORRECT,2,43,0,0,1,1,1,1,1,1,1,1,1,1,1,0,0
2,44,F,25,HEARING,16,ND,6,29,35,0.76, C, C, CORRECT,2,44,0,0,1,1,1,1,1,1,1,1,1,1,1,0,0
2,45,F,25,HEARING,16,ND,6,29,72,0.6, C, C, CORRECT,2,45,0,0,1,1,1,1,1,1,1,1,1,1,1,0,0
2,46,F,25,HEARING,16,ND,6,29,48,0.675, N, N, CORRECT,2,46,0,0,1,1,1,1,1,1,1,1,1,1,1,0,0
2,47,F,25,HEARING,16,ND,6,29,64,0.73, C, C, CORRECT,2,47,0,0,1,0,1,1,1,1,1,1,1,1,1,0,0
2,48,F,25,HEARING,16,ND,6,29,24,0.71, N, N, CORRECT,2,48,0,0,1,0,1,1,1,1,1,1,1,1,1,0,0
2,49,F,25,HEARING,16,ND,6,29,59,0.745, N, N, CORRECT,2,49,0,0,0,0,1,1,1,1,1,1,1,1,1,0,0
2,50,F,25,HEARING,16,ND,6,29,16,0.66, N, N, CORRECT,2,50,0,0,0,0,1,1,1,1,1,1,1,1,1,0,0
2,51,F,25,HEARING,16,ND,6,29,61,0.69, N, N, CORRECT,2,51,0,0,0,0,1,1,1,1,1,1,1,1,1,0,0
2,52,F,25,HEARING,16,ND,6,29,2,0.695, C, C, CORRECT,2,52,0,0,0,0,1,1,1,1,1,1,1,1,1,0,0
2,53,F,25,HEARING,16,ND,6,29,71,2.1, N, C, INCORRECT,2,53,0,0,0,0,1,1,0,1,0,0,0,0,0,0,0
2,54,F,25,HEARING,16,ND,6,29,57,0.76, C, C, CORRECT,2,54,0,0,0,0,1,0,0,1,0,0,0,0,0,0,0
2,55,F,25,HEARING,16,ND,6,29,1,0.67, N, N, CORRECT,2,55,0,0,0,0,1,0,0,0,0,0,0,0,0,0,0
2,56,F,25,HEARING,16,ND,6,29,83,1.03, C, N, INCORRECT,2,56,0,0,0,0,1,0,0,0,0,0,0,0,0,0,0
2,57,F,25,HEARING,16,ND,6,29,62,0.635, C, C, CORRECT,2,57,0,0,0,0,1,0,0,0,0,0,0,0,0,0,0
2,58,F,25,HEARING,16,ND,6,29,22,0.965, C, C, CORRECT,2,58,0,0,0,0,1,0,0,0,0,0,0,0,0,0,0
2,59,F,25,HEARING,16,ND,6,29,69,0.67, N, N, CORRECT,2,59,0,0,0,0,1,0,0,0,0,0,0,0,0,0,0
2,60,F,25,HEARING,16,ND,6,29,40,0.705, C, C, CORRECT,2,60,0,0,0,0,1,0,0,0,0,0,0,0,0,0,0
2,61,F,25,HEARING,16,ND,6,29,8,0.625, C, C, CORRECT,2,61,0,0,0,0,1,0,0,0,0,0,0,0,0,0,0
2,62,F,25,HEARING,16,ND,6,29,79,0.635, N, N, CORRECT,2,62,0,0,0,0,1,0,0,0,0,0,0,0,0,0,0
2,63,F,25,HEARING,16,ND,6,29,42,0.91, C, C, CORRECT,2,63,0,0,0,0,1,0,0,0,0,0,0,0,0,0,0
2,64,F,25,HEARING,16,ND,6,29,73,0.6, N, N, CORRECT,2,64,0,0,0,0,1,0,0,0,0,0,0,0,0,0,0
2,65,F,25,HEARING,16,ND,6,29,20,0.7, C, N, INCORRECT,2,65,0,0,0,0,1,0,0,0,0,0,0,0,0,0,0
2,66,F,25,HEARING,16,ND,6,29,9,0.955, N, N, CORRECT,2,66,0,0,0,0,1,0,0,0,0,0,0,0,0,0,0
2,67,F,25,HEARING,16,ND,6,29,52,0.765, N, N, CORRECT,2,67,0,0,0,0,1,0,0,0,0,0,0,0,0,0,0
2,68,F,25,HEARING,16,ND,6,29,44,0.67, N, N, CORRECT,2,68,0,0,0,0,1,0,0,0,0,0,0,0,0,0,0
2,69,F,25,HEARING,16,ND,6,29,11,0.635, C, C, CORRECT,2,69,0,0,0,0,1,0,0,0,0,0,0,0,0,0,0
2,70,F,25,HEARING,16,ND,6,29,32,0.69, N, N, CORRECT,2,70,0,0,0,0,1,0,0,0,0,0,0,0,0,0,0
2,71,F,25,HEARING,16,ND,6,29,77,0.73, N, N, CORRECT,2,71,0,0,0,0,1,0,0,0,0,0,0,0,0,0,0
2,72,F,25,HEARING,16,ND,6,29,0,0.635, C, N, INCORRECT,2,72,0,0,0,0,1,0,0,0,0,0,0,0,0,0,0
2,73,F,25,HEARING,16,ND,6,29,29,0.775, N, N, CORRECT,2,73,0,0,0,0,1,0,0,0,0,0,0,0,0,0,0
2,74,F,25,HEARING,16,ND,6,29,26,1.125, C, N, INCORRECT,2,74,0,0,0,0,1,0,0,0,0,0,0,0,0,0,0
2,75,F,25,HEARING,16,ND,6,29,86,0.67, C, C, CORRECT,2,75,0,0,0,0,1,0,0,0,0,0,0,0,0,0,0
2,76,F,25,HEARING,16,ND,6,29,82,0.73, N, N, CORRECT,2,76,0,0,0,0,1,0,0,0,0,0,0,0,0,0,0
2,77,F,25,HEARING,16,ND,6,29,21,0.525, N, N, CORRECT,2,77,0,0,0,0,1,0,0,0,0,0,0,0,0,0,0
2,78,F,25,HEARING,16,ND,6,29,12,0.72, C, C, CORRECT,2,78,0,0,0,0,1,0,0,0,0,0,0,0,0,0,0
2,79,F,25,HEARING,16,ND,6,29,41,0.49, C, C, CORRECT,2,79,0,0,0,0,1,0,0,0,0,0,0,0,0,0,0
2,80,F,25,HEARING,16,ND,6,29,3,0.485, C, C, CORRECT,2,80,0,0,0,0,1,0,0,0,0,0,0,0,0,0,0
2,81,F,25,HEARING,16,ND,6,29,39,0.695, N, N, CORRECT,2,81,0,0,0,0,1,0,0,0,0,0,0,0,0,0,0
2,82,F,25,HEARING,16,ND,6,29,36,0.545, C, C, CORRECT,2,82,0,0,0,0,0,0,0,0,0,0,0,0,0,0,0
2,83,F,25,HEARING,16,ND,6,29,74,0.66, C, C, CORRECT,2,83,0,0,0,0,0,0,0,0,0,0,0,0,0,0,0
2,84,F,25,HEARING,16,ND,6,29,17,0.555, C, C, CORRECT,2,84,0,0,0,0,0,0,0,0,0,0,0,0,0,0,0
2,85,F,25,HEARING,16,ND,6,29,25,0.855, N, C, INCORRECT,2,85,0,0,0,0,0,0,0,0,0,0,0,0,0,0,0
2,86,F,25,HEARING,16,ND,6,29,18,0.955, C, C, CORRECT,2,86,0,0,0,0,0,0,0,0,0,0,0,0,0,0,0
2,87,F,25,HEARING,16,ND,6,29,60,0.78, N, N, CORRECT,2,87,0,0,0,0,0,0,0,0,0,0,0,0,0,0,0
3,1,M,56,HEARING,8,ND,3,35,56,14.165, N, C, INCORRECT,3,1,1,1,1,1,1,1,1,1,1,1,1,1,1,1,1
3,2,M,56,HEARING,8,ND,3,35,34,1.035, C, N, INCORRECT,3,2,1,1,1,1,1,1,1,1,1,1,1,1,1,1,1
3,3,M,56,HEARING,8,ND,3,35,14,1.205, C, N, INCORRECT,3,3,1,1,1,1,1,1,1,1,1,1,1,1,1,1,1
3,4,M,56,HEARING,8,ND,3,35,50,0.78, C, C, CORRECT,3,4,1,1,1,1,1,1,1,1,1,1,1,1,1,1,1
3,5,M,56,HEARING,8,ND,3,35,78,0.905, C, N, INCORRECT,3,5,1,1,1,1,1,1,1,1,1,1,1,1,1,1,1
3,6,M,56,HEARING,8,ND,3,35,23,1.2, N, N, CORRECT,3,6,1,1,1,1,1,1,1,1,1,1,1,1,1,1,1
3,7,M,56,HEARING,8,ND,3,35,48,1.235, C, C, CORRECT,3,7,1,1,1,1,1,1,1,1,1,1,1,1,1,1,1
3,8,M,56,HEARING,8,ND,3,35,21,1.11, N, N, CORRECT,3,8,1,1,1,1,1,1,1,1,1,1,1,1,1,1,1
3,9,M,56,HEARING,8,ND,3,35,63,1.25, N, C, INCORRECT,3,9,1,1,1,1,1,1,1,1,1,1,1,1,1,1,1
3,10,M,56,HEARING,8,ND,3,35,45,1.17, N, N, CORRECT,3,10,1,1,1,1,1,1,1,1,1,1,1,1,1,1,1
3,11,M,56,HEARING,8,ND,3,35,77,1.385, N, C, INCORRECT,3,11,1,1,1,1,1,1,1,1,1,1,1,1,1,1,1
3,12,M,56,HEARING,8,ND,3,35,36,0.905, C, C, CORRECT,3,12,1,1,1,1,1,1,1,1,1,1,1,1,1,1,1
3,13,M,56,HEARING,8,ND,3,35,43,0.53, N, N, CORRECT,3,13,1,1,1,1,1,1,1,1,1,1,1,1,1,1,1
3,14,M,56,HEARING,8,ND,3,35,59,1.43, N, N, CORRECT,3,14,1,1,1,1,1,1,1,1,1,1,1,1,1,1,1
3,15,M,56,HEARING,8,ND,3,35,57,1.135, C, N, INCORRECT,3,15,1,1,1,1,1,1,1,1,1,1,1,1,1,1,1
3,16,M,56,HEARING,8,ND,3,35,60,0.725, N, N, CORRECT,3,16,1,1,1,1,1,1,1,1,1,1,1,1,1,1,1
3,17,M,56,HEARING,8,ND,3,35,73,2.38, N, N, CORRECT,3,17,1,1,1,1,1,1,1,1,1,1,1,1,1,1,1
3,18,M,56,HEARING,8,ND,3,35,16,1.185, C, C, CORRECT,3,18,1,1,1,1,1,1,1,1,1,1,1,1,1,1,1
3,19,M,56,HEARING,8,ND,3,35,62,1.125, C, C, CORRECT,3,19,1,1,1,1,1,1,1,1,1,1,1,1,1,1,1
3,20,M,56,HEARING,8,ND,3,35,47,1.24, N, N, CORRECT,3,20,1,1,1,1,1,1,1,1,1,1,1,1,1,1,1
3,21,M,56,HEARING,8,ND,3,35,26,0.56, N, C, INCORRECT,3,21,1,1,1,1,1,1,1,1,1,1,1,1,1,1,1
3,22,M,56,HEARING,8,ND,3,35,53,1.285, N, N, CORRECT,3,22,1,1,1,1,1,1,1,1,1,1,1,1,1,1,1
3,23,M,56,HEARING,8,ND,3,35,44,1.465, N, N, CORRECT,3,23,1,1,1,1,1,1,1,1,1,1,1,1,1,1,1
3,24,M,56,HEARING,8,ND,3,35,32,2.905, N, N, CORRECT,3,24,1,1,1,1,1,1,1,1,1,1,1,1,1,1,1
3,25,M,56,HEARING,8,ND,3,35,24,1.335, C, C, CORRECT,3,25,1,1,1,1,1,1,1,1,1,1,1,1,1,1,1
3,26,M,56,HEARING,8,ND,3,35,9,1.145, N, N, CORRECT,3,26,1,1,1,1,1,1,1,1,1,1,1,1,1,1,1
3,27,M,56,HEARING,8,ND,3,35,25,1.465, C, N, INCORRECT,3,27,1,1,1,1,1,1,1,1,1,1,1,1,1,1,1
3,28,M,56,HEARING,8,ND,3,35,4,1.215, N, C, INCORRECT,3,28,1,1,1,1,1,1,1,1,1,1,1,1,1,1,1
3,29,M,56,HEARING,8,ND,3,35,1,1.375, N, N, CORRECT,3,29,1,1,1,1,1,1,1,1,1,1,1,1,1,1,1
3,30,M,56,HEARING,8,ND,3,35,37,1.32, C, C, CORRECT,3,30,1,1,1,1,1,1,1,1,1,1,1,1,1,1,1
3,31,M,56,HEARING,8,ND,3,35,75,1.6, N, C, INCORRECT,3,31,1,1,1,1,1,1,1,1,1,1,1,1,1,1,1
3,32,M,56,HEARING,8,ND,3,35,76,1.465, N, N, CORRECT,3,32,1,1,1,1,1,1,1,1,1,1,1,1,1,1,1
3,33,M,56,HEARING,8,ND,3,35,39,1.335, C, C, CORRECT,3,33,1,1,1,1,1,1,1,1,1,1,1,1,1,1,1
3,34,M,56,HEARING,8,ND,3,35,11,1.275, C, N, INCORRECT,3,34,1,1,1,1,1,1,1,1,1,1,1,1,1,1,1
3,35,M,56,HEARING,8,ND,3,35,19,1.31, C, N, INCORRECT,3,35,1,1,1,1,1,1,1,1,1,1,1,1,1,1,1
3,36,M,56,HEARING,8,ND,3,35,17,1.83, C, N, INCORRECT,3,36,1,1,1,1,1,1,1,1,1,1,1,1,1,1,1
3,37,M,56,HEARING,8,ND,3,35,66,1.1, N, C, INCORRECT,3,37,0,1,1,1,1,1,1,1,1,1,1,1,1,1,1
3,38,M,56,HEARING,8,ND,3,35,42,2.17, N, N, CORRECT,3,38,0,1,1,1,1,1,1,1,1,1,1,1,1,0,0
3,39,M,56,HEARING,8,ND,3,35,41,1.655, N, N, CORRECT,3,39,0,0,1,1,1,1,1,1,1,1,1,1,1,0,0
3,40,M,56,HEARING,8,ND,3,35,15,1.28, C, N, INCORRECT,3,40,0,0,1,1,1,1,1,1,1,1,1,1,1,0,0
3,41,M,56,HEARING,8,ND,3,35,51,1.54, N, N, CORRECT,3,41,0,0,1,1,1,1,1,1,1,1,1,1,1,0,0
3,42,M,56,HEARING,8,ND,3,35,3,1.29, N, N, CORRECT,3,42,0,0,1,1,1,1,1,1,1,1,1,1,1,0,0
3,43,M,56,HEARING,8,ND,3,35,74,1.505, C, C, CORRECT,3,43,0,0,1,1,1,1,1,1,1,1,1,1,1,0,0
3,44,M,56,HEARING,8,ND,3,35,33,2.07, N, N, CORRECT,3,44,0,0,1,1,1,1,1,1,1,1,1,0,1,0,0
3,45,M,56,HEARING,8,ND,3,35,86,1.465, N, C, INCORRECT,3,45,0,0,1,1,1,0,1,1,1,1,1,0,1,0,0
3,46,M,56,HEARING,8,ND,3,35,29,1.655, C, C, CORRECT,3,46,0,0,1,1,1,0,1,1,1,1,1,0,1,0,0
3,47,M,56,HEARING,8,ND,3,35,54,1.175, N, C, INCORRECT,3,47,0,0,1,1,0,0,1,1,1,1,1,0,1,0,0
3,48,M,56,HEARING,8,ND,3,35,80,1.995, C, N, INCORRECT,3,48,0,0,1,1,0,0,1,0,0,0,1,0,1,0,0
3,49,M,56,HEARING,8,ND,3,35,58,1.38, N, C, INCORRECT,3,49,0,0,1,1,0,0,1,0,0,0,1,0,1,0,0
3,50,M,56,HEARING,8,ND,3,35,72,1.35, N, C, INCORRECT,3,50,0,0,1,0,0,0,1,0,0,0,0,0,0,0,0
3,51,M,56,HEARING,8,ND,3,35,22,1.46, N, C, INCORRECT,3,51,0,0,1,0,0,0,1,0,0,0,0,0,0,0,0
3,52,M,56,HEARING,8,ND,3,35,28,1.505, N, C, INCORRECT,3,52,0,0,0,0,0,0,0,0,0,0,0,0,0,0,0
3,53,M,56,HEARING,8,ND,3,35,7,3.065, N, C, INCORRECT,3,53,0,0,0,0,0,0,0,0,0,0,0,0,0,0,0
3,54,M,56,HEARING,8,ND,3,35,30,1.55, C, N, INCORRECT,3,54,0,0,0,0,0,0,0,0,0,0,0,0,0,0,0
3,55,M,56,HEARING,8,ND,3,35,84,1.32, N, N, CORRECT,3,55,0,0,0,0,0,0,0,0,0,0,0,0,0,0,0
3,56,M,56,HEARING,8,ND,3,35,10,1.105, C, C, CORRECT,3,56,0,0,0,0,0,0,0,0,0,0,0,0,0,0,0
3,57,M,56,HEARING,8,ND,3,35,68,1.295, C, N, INCORRECT,3,57,0,0,0,0,0,0,0,0,0,0,0,0,0,0,0
3,58,M,56,HEARING,8,ND,3,35,8,1.96, C, N, INCORRECT,3,58,0,0,0,0,0,0,0,0,0,0,0,0,0,0,0
3,59,M,56,HEARING,8,ND,3,35,27,1.285, N, N, CORRECT,3,59,0,0,0,0,0,0,0,0,0,0,0,0,0,0,0
3,60,M,56,HEARING,8,ND,3,35,81,1.38, N, C, INCORRECT,3,60,0,0,0,0,0,0,0,0,0,0,0,0,0,0,0
3,61,M,56,HEARING,8,ND,3,35,20,1.28, N, N, CORRECT,3,61,0,0,0,0,0,0,0,0,0,0,0,0,0,0,0
3,62,M,56,HEARING,8,ND,3,35,35,1.555, N, C, INCORRECT,3,62,0,0,0,0,0,0,0,0,0,0,0,0,0,0,0
3,63,M,56,HEARING,8,ND,3,35,12,1.525, N, N, CORRECT,3,63,0,0,0,0,0,0,0,0,0,0,0,0,0,0,0
3,64,M,56,HEARING,8,ND,3,35,38,1.425, N, C, INCORRECT,3,64,0,0,0,0,0,0,0,0,0,0,0,0,0,0,0
3,65,M,56,HEARING,8,ND,3,35,71,1.69, N, C, INCORRECT,3,65,0,0,0,0,0,0,0,0,0,0,0,0,0,0,0
3,66,M,56,HEARING,8,ND,3,35,6,1.305, C, C, CORRECT,3,66,0,0,0,0,0,0,0,0,0,0,0,0,0,0,0
3,67,M,56,HEARING,8,ND,3,35,49,1.485, N, N, CORRECT,3,67,0,0,0,0,0,0,0,0,0,0,0,0,0,0,0
3,68,M,56,HEARING,8,ND,3,35,79,1.425, C, C, CORRECT,3,68,0,0,0,0,0,0,0,0,0,0,0,0,0,0,0
3,69,M,56,HEARING,8,ND,3,35,55,1.47, N, N, CORRECT,3,69,0,0,0,0,0,0,0,0,0,0,0,0,0,0,0
3,70,M,56,HEARING,8,ND,3,35,69,1.35, C, N, INCORRECT,3,70,0,0,0,0,0,0,0,0,0,0,0,0,0,0,0
3,71,M,56,HEARING,8,ND,3,35,61,1.47, C, C, CORRECT,3,71,0,0,0,0,0,0,0,0,0,0,0,0,0,0,0
3,72,M,56,HEARING,8,ND,3,35,13,1.52, N, N, CORRECT,3,72,0,0,0,0,0,0,0,0,0,0,0,0,0,0,0
3,73,M,56,HEARING,8,ND,3,35,46,1.29, C, N, INCORRECT,3,73,0,0,0,0,0,0,0,0,0,0,0,0,0,0,0
3,74,M,56,HEARING,8,ND,3,35,2,1.37, C, N, INCORRECT,3,74,0,0,0,0,0,0,0,0,0,0,0,0,0,0,0
3,75,M,56,HEARING,8,ND,3,35,83,2.135, C, C, CORRECT,3,75,0,0,0,0,0,0,0,0,0,0,0,0,0,0,0
3,76,M,56,HEARING,8,ND,3,35,18,1.385, N, N, CORRECT,3,76,0,0,0,0,0,0,0,0,0,0,0,0,0,0,0
3,77,M,56,HEARING,8,ND,3,35,0,1.575, N, C, INCORRECT,3,77,0,0,0,0,0,0,0,0,0,0,0,0,0,0,0
3,78,M,56,HEARING,8,ND,3,35,85,1.555, C, N, INCORRECT,3,78,0,0,0,0,0,0,0,0,0,0,0,0,0,0,0
3,79,M,56,HEARING,8,ND,3,35,65,1.485, C, N, INCORRECT,3,79,0,0,0,0,0,0,0,0,0,0,0,0,0,0,0
3,80,M,56,HEARING,8,ND,3,35,70,1.415, C, C, CORRECT,3,80,0,0,0,0,0,0,0,0,0,0,0,0,0,0,0
3,81,M,56,HEARING,8,ND,3,35,82,1.385, C, N, INCORRECT,3,81,0,0,0,0,0,0,0,0,0,0,0,0,0,0,0
3,82,M,56,HEARING,8,ND,3,35,67,1.785, N, N, CORRECT,3,82,0,0,0,0,0,0,0,0,0,0,0,0,0,0,0
3,83,M,56,HEARING,8,ND,3,35,5,1.38, C, N, INCORRECT,3,83,0,0,0,0,0,0,0,0,0,0,0,0,0,0,0
3,84,M,56,HEARING,8,ND,3,35,52,1.35, C, N, INCORRECT,3,84,0,0,0,0,0,0,0,0,0,0,0,0,0,0,0
3,85,M,56,HEARING,8,ND,3,35,64,1.54, N, C, INCORRECT,3,85,0,0,0,0,0,0,0,0,0,0,0,0,0,0,0
3,86,M,56,HEARING,8,ND,3,35,31,1.78, N, N, CORRECT,3,86,0,0,0,0,0,0,0,0,0,0,0,0,0,0,0
3,87,M,56,HEARING,8,ND,3,35,40,1.465, N, N, CORRECT,3,87,0,0,0,0,0,0,0,0,0,0,0,0,0,0,0
4,1,F,55,HEARING,13,ND,6,35,65,1.58, N, N, CORRECT,4,1,1,1,1,1,1,1,1,1,1,1,1,1,1,1,1
4,2,F,55,HEARING,13,ND,6,35,52,1.01, N, N, CORRECT,4,2,1,1,1,1,1,1,1,1,1,1,1,1,1,1,1
4,3,F,55,HEARING,13,ND,6,35,80,1.01, N, N, CORRECT,4,3,1,1,1,1,1,1,1,1,1,1,1,1,1,1,1
4,4,F,55,HEARING,13,ND,6,35,67,0.875, C, C, CORRECT,4,4,1,1,1,1,1,1,1,1,1,1,1,1,1,1,1
4,5,F,55,HEARING,13,ND,6,35,19,0.98, C, C, CORRECT,4,5,1,1,1,1,1,1,1,1,1,1,1,1,1,1,1
4,6,F,55,HEARING,13,ND,6,35,85,1.075, C, C, CORRECT,4,6,1,1,1,1,1,1,1,1,1,1,1,1,1,1,1
4,7,F,55,HEARING,13,ND,6,35,81,0.855, C, C, CORRECT,4,7,1,1,1,1,1,1,1,1,1,1,1,1,1,1,1
4,8,F,55,HEARING,13,ND,6,35,69,0.795, C, C, CORRECT,4,8,1,1,1,1,1,1,1,1,1,1,1,1,1,1,1
4,9,F,55,HEARING,13,ND,6,35,63,1.585, C, C, CORRECT,4,9,1,1,1,1,1,1,1,1,1,1,1,1,1,1,1
4,10,F,55,HEARING,13,ND,6,35,43,0.885, N, N, CORRECT,4,10,1,1,1,1,1,1,1,1,1,1,1,1,1,1,1
4,11,F,55,HEARING,13,ND,6,35,2,0.75, N, N, CORRECT,4,11,1,1,1,1,1,1,1,1,1,1,1,1,1,1,1
4,12,F,55,HEARING,13,ND,6,35,82,0.935, N, N, CORRECT,4,12,1,1,1,1,1,1,1,1,1,1,1,1,1,1,1
4,13,F,55,HEARING,13,ND,6,35,46,0.7, C, C, CORRECT,4,13,1,1,1,1,1,1,1,1,1,1,1,1,1,1,1
4,14,F,55,HEARING,13,ND,6,35,25,0.87, C, C, CORRECT,4,14,1,1,1,1,1,1,1,1,1,1,1,1,1,1,1
4,15,F,55,HEARING,13,ND,6,35,38,0.85, N, N, CORRECT,4,15,1,1,1,1,1,1,1,1,1,1,1,1,1,1,1
4,16,F,55,HEARING,13,ND,6,35,64,0.975, C, N, INCORRECT,4,16,1,1,1,1,1,1,1,1,1,1,1,1,1,1,1
4,17,F,55,HEARING,13,ND,6,35,86,0.935, N, N, CORRECT,4,17,1,1,1,1,1,1,1,1,1,1,1,1,1,1,1
4,18,F,55,HEARING,13,ND,6,35,30,0.835, N, N, CORRECT,4,18,1,1,1,1,1,1,1,1,1,1,1,1,1,1,1
4,19,F,55,HEARING,13,ND,6,35,57,0.74, N, N, CORRECT,4,19,1,1,1,1,1,1,1,1,1,1,1,1,1,1,1
4,20,F,55,HEARING,13,ND,6,35,34,1.345, N, N, CORRECT,4,20,1,1,1,1,1,1,1,1,1,1,1,1,1,1,1
4,21,F,55,HEARING,13,ND,6,35,17,0.865, C, C, CORRECT,4,21,1,1,1,1,1,1,1,1,1,1,1,1,1,1,1
4,22,F,55,HEARING,13,ND,6,35,8,1.07, C, C, CORRECT,4,22,1,1,1,1,1,1,1,1,1,1,1,1,1,1,1
4,23,F,55,HEARING,13,ND,6,35,31,1.06, N, N, CORRECT,4,23,1,1,1,1,1,1,1,1,1,1,1,1,1,1,1
4,24,F,55,HEARING,13,ND,6,35,48,1.325, C, N, INCORRECT,4,24,1,1,1,1,1,1,1,1,1,1,1,1,1,1,1
4,25,F,55,HEARING,13,ND,6,35,54,0.86, C, N, INCORRECT,4,25,1,1,1,1,1,1,1,1,1,1,1,1,1,1,1
4,26,F,55,HEARING,13,ND,6,35,18,0.84, N, N, CORRECT,4,26,1,1,1,1,1,1,1,1,1,1,1,1,1,1,1
4,27,F,55,HEARING,13,ND,6,35,83,1.11, C, C, CORRECT,4,27,1,1,1,1,1,1,1,1,1,1,1,1,1,1,1
4,28,F,55,HEARING,13,ND,6,35,76,1.08, N, N, CORRECT,4,28,1,1,1,1,1,1,1,1,1,1,1,1,1,1,1
4,29,F,55,HEARING,13,ND,6,35,9,0.855, N, N, CORRECT,4,29,1,1,1,1,1,1,1,1,1,1,1,1,1,1,1
4,30,F,55,HEARING,13,ND,6,35,77,0.775, N, C, INCORRECT,4,30,1,1,1,1,1,1,1,1,1,1,1,1,1,1,1
4,31,F,55,HEARING,13,ND,6,35,40,1.19, N, N, CORRECT,4,31,1,1,1,1,1,1,1,1,1,1,1,1,1,1,1
4,32,F,55,HEARING,13,ND,6,35,78,0.93, C, C, CORRECT,4,32,1,1,1,1,1,1,1,1,1,1,1,1,1,1,1
4,33,F,55,HEARING,13,ND,6,35,72,0.955, N, N, CORRECT,4,33,1,1,1,1,1,1,1,1,1,1,1,1,1,1,1
4,34,F,55,HEARING,13,ND,6,35,5,0.95, N, N, CORRECT,4,34,1,1,1,1,1,1,1,1,1,1,1,1,1,1,1
4,35,F,55,HEARING,13,ND,6,35,27,0.745, N, N, CORRECT,4,35,1,1,1,1,1,1,1,1,1,1,1,1,1,1,1
4,36,F,55,HEARING,13,ND,6,35,32,0.94, N, N, CORRECT,4,36,0,1,1,1,1,1,1,1,1,1,1,1,1,1,1
4,37,F,55,HEARING,13,ND,6,35,79,0.91, N, N, CORRECT,4,37,0,1,1,1,1,1,1,1,1,1,1,1,1,1,1
4,38,F,55,HEARING,13,ND,6,35,33,1.6, C, C, CORRECT,4,38,0,1,1,1,1,1,1,1,1,1,1,1,1,1,1
4,39,F,55,HEARING,13,ND,6,35,22,0.835, N, N, CORRECT,4,39,0,1,1,1,1,1,1,1,1,1,1,1,1,1,1
4,40,F,55,HEARING,13,ND,6,35,10,0.97, N, N, CORRECT,4,40,0,0,1,1,1,1,1,1,1,1,1,1,1,1,1
4,41,F,55,HEARING,13,ND,6,35,50,0.805, N, N, CORRECT,4,41,0,0,1,1,1,1,1,1,1,1,1,1,1,1,1
4,42,F,55,HEARING,13,ND,6,35,71,1.105, C, C, CORRECT,4,42,0,0,1,1,1,1,1,1,1,1,1,1,1,1,1
4,43,F,55,HEARING,13,ND,6,35,20,1.035, C, C, CORRECT,4,43,0,0,1,1,1,1,1,1,1,1,1,1,1,0,0
4,44,F,55,HEARING,13,ND,6,35,41,1.075, C, C, CORRECT,4,44,0,0,1,1,1,1,1,1,1,1,1,1,1,0,0
4,45,F,55,HEARING,13,ND,6,35,44,1.09, N, N, CORRECT,4,45,0,0,1,1,1,1,1,1,1,1,1,1,1,0,0
4,46,F,55,HEARING,13,ND,6,35,37,0.86, N, N, CORRECT,4,46,0,0,1,1,1,1,1,1,1,1,1,1,1,0,0
4,47,F,55,HEARING,13,ND,6,35,73,0.925, N, N, CORRECT,4,47,0,0,1,1,1,1,1,1,1,1,1,1,1,0,0
4,48,F,55,HEARING,13,ND,6,35,66,0.85, C, C, CORRECT,4,48,0,0,1,1,1,1,1,1,1,1,1,1,1,0,0
4,49,F,55,HEARING,13,ND,6,35,35,0.835, C, C, CORRECT,4,49,0,0,1,0,1,1,0,0,0,0,0,0,1,0,0
4,50,F,55,HEARING,13,ND,6,35,74,0.7, N, N, CORRECT,4,50,0,0,1,0,1,0,0,0,0,0,0,0,1,0,0
4,51,F,55,HEARING,13,ND,6,35,6,0.715, N, N, CORRECT,4,51,0,0,1,0,1,0,0,0,0,0,0,0,0,0,0
4,52,F,55,HEARING,13,ND,6,35,75,0.875, C, N, INCORRECT,4,52,0,0,1,0,1,0,0,0,0,0,0,0,0,0,0
4,53,F,55,HEARING,13,ND,6,35,60,1.03, N, N, CORRECT,4,53,0,0,0,0,1,0,0,0,0,0,0,0,0,0,0
4,54,F,55,HEARING,13,ND,6,35,24,0.895, N, N, CORRECT,4,54,0,0,0,0,1,0,0,0,0,0,0,0,0,0,0
4,55,F,55,HEARING,13,ND,6,35,62,0.835, C, C, CORRECT,4,55,0,0,0,0,1,0,0,0,0,0,0,0,0,0,0
4,56,F,55,HEARING,13,ND,6,35,15,0.845, C, C, CORRECT,4,56,0,0,0,0,1,0,0,0,0,0,0,0,0,0,0
4,57,F,55,HEARING,13,ND,6,35,56,1.515, C, N, INCORRECT,4,57,0,0,0,0,1,0,0,0,0,0,0,0,0,0,0
4,58,F,55,HEARING,13,ND,6,35,70,1.57, C, C, CORRECT,4,58,0,0,0,0,1,0,0,0,0,0,0,0,0,0,0
4,59,F,55,HEARING,13,ND,6,35,58,0.965, N, N, CORRECT,4,59,0,0,0,0,1,0,0,0,0,0,0,0,0,0,0
4,60,F,55,HEARING,13,ND,6,35,16,0.95, N, N, CORRECT,4,60,0,0,0,0,1,0,0,0,0,0,0,0,0,0,0
4,61,F,55,HEARING,13,ND,6,35,53,0.85, N, N, CORRECT,4,61,0,0,0,0,1,0,0,0,0,0,0,0,0,0,0
4,62,F,55,HEARING,13,ND,6,35,0,0.83, C, N, INCORRECT,4,62,0,0,0,0,1,0,0,0,0,0,0,0,0,0,0
4,63,F,55,HEARING,13,ND,6,35,26,1.075, N, N, CORRECT,4,63,0,0,0,0,1,0,0,0,0,0,0,0,0,0,0
4,64,F,55,HEARING,13,ND,6,35,39,1.12, C, C, CORRECT,4,64,0,0,0,0,1,0,0,0,0,0,0,0,0,0,0
4,65,F,55,HEARING,13,ND,6,35,21,0.98, C, C, CORRECT,4,65,0,0,0,0,1,0,0,0,0,0,0,0,0,0,0
4,66,F,55,HEARING,13,ND,6,35,61,0.755, C, C, CORRECT,4,66,0,0,0,0,1,0,0,0,0,0,0,0,0,0,0
4,67,F,55,HEARING,13,ND,6,35,11,0.87, N, N, CORRECT,4,67,0,0,0,0,1,0,0,0,0,0,0,0,0,0,0
4,68,F,55,HEARING,13,ND,6,35,49,0.995, N, N, CORRECT,4,68,0,0,0,0,1,0,0,0,0,0,0,0,0,0,0
4,69,F,55,HEARING,13,ND,6,35,14,0.835, C, C, CORRECT,4,69,0,0,0,0,1,0,0,0,0,0,0,0,0,0,0
4,70,F,55,HEARING,13,ND,6,35,51,0.85, C, C, CORRECT,4,70,0,0,0,0,1,0,0,0,0,0,0,0,0,0,0
4,71,F,55,HEARING,13,ND,6,35,7,0.72, C, C, CORRECT,4,71,0,0,0,0,1,0,0,0,0,0,0,0,0,0,0
4,72,F,55,HEARING,13,ND,6,35,36,0.665, C, C, CORRECT,4,72,0,0,0,0,1,0,0,0,0,0,0,0,0,0,0
4,73,F,55,HEARING,13,ND,6,35,47,0.8, N, N, CORRECT,4,73,0,0,0,0,1,0,0,0,0,0,0,0,0,0,0
4,74,F,55,HEARING,13,ND,6,35,42,0.855, C, C, CORRECT,4,74,0,0,0,0,1,0,0,0,0,0,0,0,0,0,0
4,75,F,55,HEARING,13,ND,6,35,55,0.93, N, N, CORRECT,4,75,0,0,0,0,1,0,0,0,0,0,0,0,0,0,0
4,76,F,55,HEARING,13,ND,6,35,13,0.98, N, N, CORRECT,4,76,0,0,0,0,1,0,0,0,0,0,0,0,0,0,0
4,77,F,55,HEARING,13,ND,6,35,3,0.825, C, C, CORRECT,4,77,0,0,0,0,1,0,0,0,0,0,0,0,0,0,0
4,78,F,55,HEARING,13,ND,6,35,28,0.81, C, C, CORRECT,4,78,0,0,0,0,1,0,0,0,0,0,0,0,0,0,0
4,79,F,55,HEARING,13,ND,6,35,4,0.97, N, N, CORRECT,4,79,0,0,0,0,1,0,0,0,0,0,0,0,0,0,0
4,80,F,55,HEARING,13,ND,6,35,45,0.88, C, C, CORRECT,4,80,0,0,0,0,0,0,0,0,0,0,0,0,0,0,0
4,81,F,55,HEARING,13,ND,6,35,68,0.87, N, N, CORRECT,4,81,0,0,0,0,0,0,0,0,0,0,0,0,0,0,0
4,82,F,55,HEARING,13,ND,6,35,29,0.905, N, N, CORRECT,4,82,0,0,0,0,0,0,0,0,0,0,0,0,0,0,0
4,83,F,55,HEARING,13,ND,6,35,23,0.88, C, C, CORRECT,4,83,0,0,0,0,0,0,0,0,0,0,0,0,0,0,0
4,84,F,55,HEARING,13,ND,6,35,1,1.385, C, N, INCORRECT,4,84,0,0,0,0,0,0,0,0,0,0,0,0,0,0,0
4,85,F,55,HEARING,13,ND,6,35,84,1.045, N, N, CORRECT,4,85,0,0,0,0,0,0,0,0,0,0,0,0,0,0,0
4,86,F,55,HEARING,13,ND,6,35,12,0.775, C, C, CORRECT,4,86,0,0,0,0,0,0,0,0,0,0,0,0,0,0,0
4,87,F,55,HEARING,13,ND,6,35,59,0.81, C, C, CORRECT,4,87,0,0,0,0,0,0,0,0,0,0,0,0,0,0,0
5,1,M,18,HEARING,12,ND,5,36,62,0.73, N, N, CORRECT,5,1,1,1,1,1,1,1,1,1,1,1,1,1,1,1,1
5,2,M,18,HEARING,12,ND,5,36,53,0.985, N, N, CORRECT,5,2,1,1,1,1,1,1,1,1,1,1,1,1,1,1,1
5,3,M,18,HEARING,12,ND,5,36,3,1.97, N, N, CORRECT,5,3,1,1,1,1,1,1,1,1,1,1,1,1,1,1,1
5,4,M,18,HEARING,12,ND,5,36,82,0.675, C, C, CORRECT,5,4,1,1,1,1,1,1,1,1,1,1,1,1,1,1,1
5,5,M,18,HEARING,12,ND,5,36,41,0.97, N, N, CORRECT,5,5,1,1,1,1,1,1,1,1,1,1,1,1,1,1,1
5,6,M,18,HEARING,12,ND,5,36,10,0.675, C, C, CORRECT,5,6,1,1,1,1,1,1,1,1,1,1,1,1,1,1,1
5,7,M,18,HEARING,12,ND,5,36,44,1.015, N, C, INCORRECT,5,7,1,1,1,1,1,1,1,1,1,1,1,1,1,1,1
5,8,M,18,HEARING,12,ND,5,36,29,1.11, N, N, CORRECT,5,8,1,1,1,1,1,1,1,1,1,1,1,1,1,1,1
5,9,M,18,HEARING,12,ND,5,36,15,0.8, N, N, CORRECT,5,9,1,1,1,1,1,1,1,1,1,1,1,1,1,1,1
5,10,M,18,HEARING,12,ND,5,36,67,0.79, C, C, CORRECT,5,10,1,1,1,1,1,1,1,1,1,1,1,1,1,1,1
5,11,M,18,HEARING,12,ND,5,36,0,0.435, C, C, CORRECT,5,11,1,1,1,1,1,1,1,1,1,1,1,1,1,1,1
5,12,M,18,HEARING,12,ND,5,36,7,1.62, N, N, CORRECT,5,12,1,1,1,1,1,1,1,1,1,1,1,1,1,1,1
5,13,M,18,HEARING,12,ND,5,36,73,1.065, N, N, CORRECT,5,13,1,1,1,1,1,1,1,1,1,1,1,1,1,1,1
5,14,M,18,HEARING,12,ND,5,36,24,0.59, C, C, CORRECT,5,14,1,1,1,1,1,1,1,1,1,1,1,1,1,1,1
5,15,M,18,HEARING,12,ND,5,36,19,0.9, C, C, CORRECT,5,15,1,1,1,1,1,1,1,1,1,1,1,1,1,1,1
5,16,M,18,HEARING,12,ND,5,36,80,0.345, N, N, CORRECT,5,16,1,1,1,1,1,1,1,1,1,1,1,1,1,1,1
5,17,M,18,HEARING,12,ND,5,36,55,0.76, N, N, CORRECT,5,17,1,1,1,1,1,1,1,1,1,1,1,1,1,1,1
5,18,M,18,HEARING,12,ND,5,36,32,1.015, C, C, CORRECT,5,18,1,1,1,1,1,1,1,1,1,1,1,1,1,1,1
5,19,M,18,HEARING,12,ND,5,36,78,0.985, C, N, INCORRECT,5,19,1,1,1,1,1,1,1,1,1,1,1,1,1,1,1
5,20,M,18,HEARING,12,ND,5,36,65,0.6, C, C, CORRECT,5,20,1,1,1,1,1,1,1,1,1,1,1,1,1,1,1
5,21,M,18,HEARING,12,ND,5,36,38,1.325, N, N, CORRECT,5,21,1,1,1,1,1,1,1,1,1,1,1,1,1,1,1
5,22,M,18,HEARING,12,ND,5,36,48,0.68, C, C, CORRECT,5,22,1,1,1,1,1,1,1,1,1,1,1,1,1,1,1
5,23,M,18,HEARING,12,ND,5,36,22,0.69, N, C, INCORRECT,5,23,1,1,1,1,1,1,1,1,1,1,1,1,1,1,1
5,24,M,18,HEARING,12,ND,5,36,27,0.805, C, C, CORRECT,5,24,1,1,1,1,1,1,1,1,1,1,1,1,1,1,1
5,25,M,18,HEARING,12,ND,5,36,86,0.59, N, C, INCORRECT,5,25,1,1,1,1,1,1,1,1,1,1,1,1,1,1,1
5,26,M,18,HEARING,12,ND,5,36,25,1.13, N, C, INCORRECT,5,26,1,1,1,1,1,1,1,1,1,1,1,1,1,0,0
5,27,M,18,HEARING,12,ND,5,36,61,0.57, N, N, CORRECT,5,27,1,1,1,1,1,1,1,1,1,1,1,1,1,0,0
5,28,M,18,HEARING,12,ND,5,36,36,0.705, N, N, CORRECT,5,28,1,1,1,1,1,1,1,1,1,1,1,1,1,0,0
5,29,M,18,HEARING,12,ND,5,36,28,0.87, N, C, INCORRECT,5,29,1,1,1,1,1,1,1,1,1,1,1,1,1,0,0
5,30,M,18,HEARING,12,ND,5,36,4,0.84, C, C, CORRECT,5,30,1,1,1,1,1,1,1,1,1,1,1,1,1,0,0
5,31,M,18,HEARING,12,ND,5,36,50,3.045, N, N, CORRECT,5,31,1,1,1,1,1,1,1,1,1,1,1,1,1,0,0
5,32,M,18,HEARING,12,ND,5,36,57,0.685, N, N, CORRECT,5,32,1,1,1,1,1,1,1,1,1,1,1,1,1,0,0
5,33,M,18,HEARING,12,ND,5,36,85,0.97, N, N, CORRECT,5,33,1,1,1,1,1,1,1,1,1,1,1,1,1,0,0
5,34,M,18,HEARING,12,ND,5,36,11,0.875, N, N, CORRECT,5,34,1,1,1,1,1,1,1,1,1,1,1,1,1,0,0
5,35,M,18,HEARING,12,ND,5,36,49,0.91, N, N, CORRECT,5,35,1,1,1,1,1,1,1,1,1,1,1,1,1,0,0
5,36,M,18,HEARING,12,ND,5,36,16,4.125, N, C, INCORRECT,5,36,1,1,1,1,1,1,1,1,1,1,1,1,1,0,0
5,37,M,18,HEARING,12,ND,5,36,18,0.555, N, N, CORRECT,5,37,0,1,1,1,1,1,1,1,1,1,1,1,1,0,0
5,38,M,18,HEARING,12,ND,5,36,6,0.46, N, C, INCORRECT,5,38,0,1,1,1,1,1,1,1,1,1,1,1,1,0,0
5,39,M,18,HEARING,12,ND,5,36,37,6.485, C, N, INCORRECT,5,39,0,1,1,1,1,1,1,1,1,1,1,1,1,0,0
5,40,M,18,HEARING,12,ND,5,36,84,0.33, C, C, CORRECT,5,40,0,1,1,1,1,1,1,1,1,1,1,1,1,0,0
5,41,M,18,HEARING,12,ND,5,36,64,1.02, N, N, CORRECT,5,41,0,1,1,1,1,1,1,1,1,1,1,1,1,0,0
5,42,M,18,HEARING,12,ND,5,36,69,0.935, N, N, CORRECT,5,42,0,1,1,1,1,1,1,1,1,1,1,1,1,0,0
5,43,M,18,HEARING,12,ND,5,36,54,0.835, N, C, INCORRECT,5,43,0,0,1,1,1,1,1,1,1,1,1,1,1,0,0
5,44,M,18,HEARING,12,ND,5,36,9,0.42, N, C, INCORRECT,5,44,0,0,1,1,1,1,1,1,1,1,1,1,1,0,0
5,45,M,18,HEARING,12,ND,5,36,39,0.765, N, N, CORRECT,5,45,0,0,1,1,1,1,1,1,1,1,1,1,1,0,0
5,46,M,18,HEARING,12,ND,5,36,58,0.385, N, N, CORRECT,5,46,0,0,1,0,1,1,1,1,1,1,1,1,1,0,0
5,47,M,18,HEARING,12,ND,5,36,43,1.385, C, C, CORRECT,5,47,0,0,1,0,1,1,1,1,1,1,1,1,1,0,0
5,48,M,18,HEARING,12,ND,5,36,13,0.79, N, N, CORRECT,5,48,0,0,1,0,1,1,1,1,1,1,1,1,1,0,0
5,49,M,18,HEARING,12,ND,5,36,33,1.105, C, N, INCORRECT,5,49,0,0,1,0,1,1,1,1,1,1,1,1,1,0,0
5,50,M,18,HEARING,12,ND,5,36,63,4.275, C, C, CORRECT,5,50,0,0,1,0,1,1,1,1,1,1,1,1,1,0,0
5,51,M,18,HEARING,12,ND,5,36,81,1.105, N, N, CORRECT,5,51,0,0,1,0,1,1,1,1,1,1,1,1,1,0,0
5,52,M,18,HEARING,12,ND,5,36,45,0.91, N, N, CORRECT,5,52,0,0,0,0,1,1,1,1,1,1,1,1,1,0,0
5,53,M,18,HEARING,12,ND,5,36,75,1.385, N, C, INCORRECT,5,53,0,0,0,0,1,1,1,1,1,1,1,1,1,0,0
5,54,M,18,HEARING,12,ND,5,36,76,1.315, N, N, CORRECT,5,54,0,0,0,0,1,1,1,1,1,1,1,1,1,0,0
5,55,M,18,HEARING,12,ND,5,36,74,0.905, N, N, CORRECT,5,55,0,0,0,0,1,1,1,1,1,1,1,1,1,0,0
5,56,M,18,HEARING,12,ND,5,36,60,0.695, N, N, CORRECT,5,56,0,0,0,0,1,1,1,1,1,1,1,1,1,0,0
5,57,M,18,HEARING,12,ND,5,36,59,0.395, N, C, INCORRECT,5,57,0,0,0,0,1,1,1,1,1,1,1,1,1,0,0
5,58,M,18,HEARING,12,ND,5,36,12,1.085, C, C, CORRECT,5,58,0,0,0,0,1,1,1,1,1,1,1,1,1,0,0
5,59,M,18,HEARING,12,ND,5,36,83,4.565, N, N, CORRECT,5,59,0,0,0,0,1,1,1,1,1,1,1,1,1,0,0
5,60,M,18,HEARING,12,ND,5,36,70,1.33, N, N, CORRECT,5,60,0,0,0,0,1,1,1,1,1,1,1,1,1,0,0
5,61,M,18,HEARING,12,ND,5,36,46,0.895, C, C, CORRECT,5,61,0,0,0,0,1,1,1,1,1,1,1,1,1,0,0
5,62,M,18,HEARING,12,ND,5,36,5,1.365, N, N, CORRECT,5,62,0,0,0,0,1,1,1,1,1,1,1,1,1,0,0
5,63,M,18,HEARING,12,ND,5,36,51,0.36, N, C, INCORRECT,5,63,0,0,0,0,1,1,1,1,1,1,1,1,1,0,0
5,64,M,18,HEARING,12,ND,5,36,42,0.585, C, C, CORRECT,5,64,0,0,0,0,1,1,1,0,1,0,1,0,1,0,0
5,65,M,18,HEARING,12,ND,5,36,56,1.005, C, C, CORRECT,5,65,0,0,0,0,1,0,1,0,1,0,1,0,1,0,0
5,66,M,18,HEARING,12,ND,5,36,79,0.69, N, N, CORRECT,5,66,0,0,0,0,1,0,1,0,0,0,0,0,0,0,0
5,67,M,18,HEARING,12,ND,5,36,66,0.875, N, N, CORRECT,5,67,0,0,0,0,1,0,1,0,0,0,0,0,0,0,0
5,68,M,18,HEARING,12,ND,5,36,47,0.92, N, N, CORRECT,5,68,0,0,0,0,1,0,0,0,0,0,0,0,0,0,0
5,69,M,18,HEARING,12,ND,5,36,21,0.515, N, N, CORRECT,5,69,0,0,0,0,0,0,0,0,0,0,0,0,0,0,0
5,70,M,18,HEARING,12,ND,5,36,77,0.55, C, C, CORRECT,5,70,0,0,0,0,0,0,0,0,0,0,0,0,0,0,0
5,71,M,18,HEARING,12,ND,5,36,23,0.67, N, N, CORRECT,5,71,0,0,0,0,0,0,0,0,0,0,0,0,0,0,0
5,72,M,18,HEARING,12,ND,5,36,14,1.51, N, C, INCORRECT,5,72,0,0,0,0,0,0,0,0,0,0,0,0,0,0,0
5,73,M,18,HEARING,12,ND,5,36,8,0.29, N, N, CORRECT,5,73,0,0,0,0,0,0,0,0,0,0,0,0,0,0,0
5,74,M,18,HEARING,12,ND,5,36,68,0.69, N, N, CORRECT,5,74,0,0,0,0,0,0,0,0,0,0,0,0,0,0,0
5,75,M,18,HEARING,12,ND,5,36,17,0.73, N, N, CORRECT,5,75,0,0,0,0,0,0,0,0,0,0,0,0,0,0,0
5,76,M,18,HEARING,12,ND,5,36,2,1.39, C, N, INCORRECT,5,76,0,0,0,0,0,0,0,0,0,0,0,0,0,0,0
5,77,M,18,HEARING,12,ND,5,36,20,0.385, N, N, CORRECT,5,77,0,0,0,0,0,0,0,0,0,0,0,0,0,0,0
5,78,M,18,HEARING,12,ND,5,36,26,0.445, N, C, INCORRECT,5,78,0,0,0,0,0,0,0,0,0,0,0,0,0,0,0
5,79,M,18,HEARING,12,ND,5,36,72,0.8, N, N, CORRECT,5,79,0,0,0,0,0,0,0,0,0,0,0,0,0,0,0
5,80,M,18,HEARING,12,ND,5,36,30,1.145, N, N, CORRECT,5,80,0,0,0,0,0,0,0,0,0,0,0,0,0,0,0
5,81,M,18,HEARING,12,ND,5,36,31,1.37, N, N, CORRECT,5,81,0,0,0,0,0,0,0,0,0,0,0,0,0,0,0
5,82,M,18,HEARING,12,ND,5,36,1,0.855, N, N, CORRECT,5,82,0,0,0,0,0,0,0,0,0,0,0,0,0,0,0
5,83,M,18,HEARING,12,ND,5,36,52,0.995, C, C, CORRECT,5,83,0,0,0,0,0,0,0,0,0,0,0,0,0,0,0
5,84,M,18,HEARING,12,ND,5,36,40,0.84, C, C, CORRECT,5,84,0,0,0,0,0,0,0,0,0,0,0,0,0,0,0
5,85,M,18,HEARING,12,ND,5,36,34,0.455, N, C, INCORRECT,5,85,0,0,0,0,0,0,0,0,0,0,0,0,0,0,0
5,86,M,18,HEARING,12,ND,5,36,35,1.06, N, N, CORRECT,5,86,0,0,0,0,0,0,0,0,0,0,0,0,0,0,0
5,87,M,18,HEARING,12,ND,5,36,71,0.715, N, N, CORRECT,5,87,0,0,0,0,0,0,0,0,0,0,0,0,0,0,0
6,1,F,22,HEARING,15,ND,6,36,9,0.9, N, N, CORRECT,6,1,1,1,1,1,1,1,1,1,1,1,1,1,1,1,1
6,2,F,22,HEARING,15,ND,6,36,86,0.83, N, N, CORRECT,6,2,1,1,1,1,1,1,1,1,1,1,1,1,1,1,1
6,3,F,22,HEARING,15,ND,6,36,6,0.815, N, N, CORRECT,6,3,1,1,1,1,1,1,1,1,1,1,1,1,1,1,1
6,4,F,22,HEARING,15,ND,6,36,13,0.655, N, N, CORRECT,6,4,1,1,1,1,1,1,1,1,1,1,1,1,1,1,1
6,5,F,22,HEARING,15,ND,6,36,36,0.7, C, C, CORRECT,6,5,1,1,1,1,1,1,1,1,1,1,1,1,1,1,1
6,6,F,22,HEARING,15,ND,6,36,74,0.855, C, C, CORRECT,6,6,1,1,1,1,1,1,1,1,1,1,1,1,1,1,1
6,7,F,22,HEARING,15,ND,6,36,5,0.575, N, N, CORRECT,6,7,1,1,1,1,1,1,1,1,1,1,1,1,1,1,1
6,8,F,22,HEARING,15,ND,6,36,67,0.675, C, C, CORRECT,6,8,1,1,1,1,1,1,1,1,1,1,1,1,1,1,1
6,9,F,22,HEARING,15,ND,6,36,65,0.86, N, N, CORRECT,6,9,1,1,1,1,1,1,1,1,1,1,1,1,1,1,1
6,10,F,22,HEARING,15,ND,6,36,69,0.725, N, N, CORRECT,6,10,1,1,1,1,1,1,1,1,1,1,1,1,1,1,1
6,11,F,22,HEARING,15,ND,6,36,33,0.57, N, N, CORRECT,6,11,1,1,1,1,1,1,1,1,1,1,1,1,1,1,1
6,12,F,22,HEARING,15,ND,6,36,68,0.62, C, C, CORRECT,6,12,1,1,1,1,1,1,1,1,1,1,1,1,1,1,1
6,13,F,22,HEARING,15,ND,6,36,38,0.565, N, N, CORRECT,6,13,1,1,1,1,1,1,1,1,1,1,1,1,1,1,1
6,14,F,22,HEARING,15,ND,6,36,63,0.75, N, N, CORRECT,6,14,1,1,1,1,1,1,1,1,1,1,1,1,1,1,1
6,15,F,22,HEARING,15,ND,6,36,3,0.615, N, N, CORRECT,6,15,1,1,1,1,1,1,1,1,1,1,1,1,1,1,1
6,16,F,22,HEARING,15,ND,6,36,50,1.13, C, C, CORRECT,6,16,1,1,1,1,1,1,1,1,1,1,1,1,1,1,1
6,17,F,22,HEARING,15,ND,6,36,24,0.5, N, N, CORRECT,6,17,1,1,1,1,1,1,1,1,1,1,1,1,1,1,1
6,18,F,22,HEARING,15,ND,6,36,56,0.645, N, N, CORRECT,6,18,1,1,1,1,1,1,1,1,1,1,1,1,1,1,1
6,19,F,22,HEARING,15,ND,6,36,34,1.3, N, C, INCORRECT,6,19,1,1,1,1,1,1,1,1,1,1,1,1,1,1,1
6,20,F,22,HEARING,15,ND,6,36,51,0.675, C, C, CORRECT,6,20,1,1,1,1,1,1,1,1,1,1,1,1,1,1,1
6,21,F,22,HEARING,15,ND,6,36,2,0.715, N, N, CORRECT,6,21,1,1,1,1,1,1,1,1,1,1,1,1,1,1,1
6,22,F,22,HEARING,15,ND,6,36,48,0.545, C, C, CORRECT,6,22,1,1,1,1,1,1,1,1,1,1,1,1,1,1,1
6,23,F,22,HEARING,15,ND,6,36,61,0.53, N, N, CORRECT,6,23,1,1,1,1,1,1,1,1,1,1,1,1,1,1,1
6,24,F,22,HEARING,15,ND,6,36,83,0.71, N, N, CORRECT,6,24,1,1,1,1,1,1,1,1,1,1,1,1,1,1,1
6,25,F,22,HEARING,15,ND,6,36,31,1.74, N, N, CORRECT,6,25,1,1,1,1,1,1,1,1,1,1,1,1,1,1,1
6,26,F,22,HEARING,15,ND,6,36,57,0.59, N, N, CORRECT,6,26,1,1,1,1,1,1,1,1,1,1,1,1,1,1,1
6,27,F,22,HEARING,15,ND,6,36,59,0.595, N, N, CORRECT,6,27,1,1,1,1,1,1,1,1,1,1,1,1,1,1,1
6,28,F,22,HEARING,15,ND,6,36,15,0.82, N, N, CORRECT,6,28,1,1,1,1,1,1,1,1,1,1,1,1,1,1,1
6,29,F,22,HEARING,15,ND,6,36,79,0.475, N, N, CORRECT,6,29,1,1,1,1,1,1,1,1,1,1,1,1,1,1,1
6,30,F,22,HEARING,15,ND,6,36,37,1.585, N, N, CORRECT,6,30,1,1,1,1,1,1,1,1,1,1,1,1,1,1,1
6,31,F,22,HEARING,15,ND,6,36,71,0.46, C, C, CORRECT,6,31,1,1,1,1,1,1,1,1,1,1,1,1,1,1,1
6,32,F,22,HEARING,15,ND,6,36,44,0.49, N, N, CORRECT,6,32,1,1,1,1,1,1,1,1,1,1,1,1,1,1,1
6,33,F,22,HEARING,15,ND,6,36,28,0.625, N, N, CORRECT,6,33,1,1,1,1,1,1,1,1,1,1,1,1,1,1,1
6,34,F,22,HEARING,15,ND,6,36,58,0.71, C, C, CORRECT,6,34,1,1,1,1,1,1,1,1,1,1,1,1,1,0,0
6,35,F,22,HEARING,15,ND,6,36,84,0.59, C, C, CORRECT,6,35,1,1,1,1,1,1,1,1,1,1,1,1,1,0,0
6,36,F,22,HEARING,15,ND,6,36,85,0.64, C, C, CORRECT,6,36,1,1,1,1,1,1,1,1,1,1,1,1,1,0,0
6,37,F,22,HEARING,15,ND,6,36,60,0.735, N, N, CORRECT,6,37,0,1,1,1,1,1,1,1,1,1,1,1,1,0,0
6,38,F,22,HEARING,15,ND,6,36,32,0.875, C, C, CORRECT,6,38,0,1,1,1,1,1,1,1,1,1,1,1,1,0,0
6,39,F,22,HEARING,15,ND,6,36,80,0.565, C, C, CORRECT,6,39,0,1,1,1,1,1,1,1,1,1,1,1,1,0,0
6,40,F,22,HEARING,15,ND,6,36,8,0.595, C, C, CORRECT,6,40,0,1,1,1,1,1,1,1,1,1,1,1,1,0,0
6,41,F,22,HEARING,15,ND,6,36,7,0.615, N, N, CORRECT,6,41,0,1,1,1,1,1,1,1,1,1,1,1,1,0,0
6,42,F,22,HEARING,15,ND,6,36,17,1.205, N, N, CORRECT,6,42,0,1,1,1,1,1,1,1,1,1,1,1,1,0,0
6,43,F,22,HEARING,15,ND,6,36,42,0.565, N, N, CORRECT,6,43,0,1,1,1,1,1,1,1,1,1,1,1,1,0,0
6,44,F,22,HEARING,15,ND,6,36,64,1.415, N, C, INCORRECT,6,44,0,1,1,0,1,1,1,1,1,1,1,1,1,0,0
6,45,F,22,HEARING,15,ND,6,36,47,0.735, C, C, CORRECT,6,45,0,0,1,0,1,1,1,1,1,1,1,1,1,0,0
6,46,F,22,HEARING,15,ND,6,36,81,0.985, N, N, CORRECT,6,46,0,0,1,0,1,1,1,1,1,1,1,1,1,0,0
6,47,F,22,HEARING,15,ND,6,36,11,1.245, N, N, CORRECT,6,47,0,0,1,0,1,1,1,1,1,1,1,1,1,0,0
6,48,F,22,HEARING,15,ND,6,36,30,1.445, N, N, CORRECT,6,48,0,0,1,0,1,1,1,1,1,1,1,1,1,0,0
6,49,F,22,HEARING,15,ND,6,36,1,0.42, N, N, CORRECT,6,49,0,0,1,0,1,1,1,1,1,1,1,1,1,0,0
6,50,F,22,HEARING,15,ND,6,36,21,2.24, N, N, CORRECT,6,50,0,0,1,0,1,1,1,1,1,1,1,1,1,0,0
6,51,F,22,HEARING,15,ND,6,36,27,0.67, C, C, CORRECT,6,51,0,0,1,0,1,1,1,1,1,1,1,1,1,0,0
6,52,F,22,HEARING,15,ND,6,36,55,1.715, C, C, CORRECT,6,52,0,0,0,0,1,1,1,1,1,1,1,1,1,0,0
6,53,F,22,HEARING,15,ND,6,36,46,0.69, C, C, CORRECT,6,53,0,0,0,0,1,1,1,1,1,1,1,1,1,0,0
6,54,F,22,HEARING,15,ND,6,36,43,1.09, C, C, CORRECT,6,54,0,0,0,0,1,1,1,1,1,1,1,1,1,0,0
6,55,F,22,HEARING,15,ND,6,36,54,0.705, N, N, CORRECT,6,55,0,0,0,0,1,1,1,1,1,1,1,1,1,0,0
6,56,F,22,HEARING,15,ND,6,36,41,1.015, N, N, CORRECT,6,56,0,0,0,0,1,1,1,0,1,0,1,1,1,0,0
6,57,F,22,HEARING,15,ND,6,36,14,0.64, N, N, CORRECT,6,57,0,0,0,0,1,1,1,0,1,0,1,1,1,0,0
6,58,F,22,HEARING,15,ND,6,36,4,1.01, N, N, CORRECT,6,58,0,0,0,0,1,1,0,0,0,0,0,0,0,0,0
6,59,F,22,HEARING,15,ND,6,36,66,1.485, N, C, INCORRECT,6,59,0,0,0,0,1,0,0,0,0,0,0,0,0,0,0
6,60,F,22,HEARING,15,ND,6,36,49,0.88, C, C, CORRECT,6,60,0,0,0,0,1,0,0,0,0,0,0,0,0,0,0
6,61,F,22,HEARING,15,ND,6,36,25,0.73, C, C, CORRECT,6,61,0,0,0,0,1,0,0,0,0,0,0,0,0,0,0
6,62,F,22,HEARING,15,ND,6,36,62,0.605, N, N, CORRECT,6,62,0,0,0,0,1,0,0,0,0,0,0,0,0,0,0
6,63,F,22,HEARING,15,ND,6,36,12,0.6, C, C, CORRECT,6,63,0,0,0,0,1,0,0,0,0,0,0,0,0,0,0
6,64,F,22,HEARING,15,ND,6,36,52,0.91, C, C, CORRECT,6,64,0,0,0,0,1,0,0,0,0,0,0,0,0,0,0
6,65,F,22,HEARING,15,ND,6,36,45,0.59, C, C, CORRECT,6,65,0,0,0,0,1,0,0,0,0,0,0,0,0,0,0
6,66,F,22,HEARING,15,ND,6,36,72,1.735, C, C, CORRECT,6,66,0,0,0,0,1,0,0,0,0,0,0,0,0,0,0
6,67,F,22,HEARING,15,ND,6,36,53,0.605, C, C, CORRECT,6,67,0,0,0,0,1,0,0,0,0,0,0,0,0,0,0
6,68,F,22,HEARING,15,ND,6,36,18,0.42, N, N, CORRECT,6,68,0,0,0,0,1,0,0,0,0,0,0,0,0,0,0
6,69,F,22,HEARING,15,ND,6,36,73,0.52, C, C, CORRECT,6,69,0,0,0,0,1,0,0,0,0,0,0,0,0,0,0
6,70,F,22,HEARING,15,ND,6,36,19,0.605, N, N, CORRECT,6,70,0,0,0,0,1,0,0,0,0,0,0,0,0,0,0
6,71,F,22,HEARING,15,ND,6,36,70,0.625, N, N, CORRECT,6,71,0,0,0,0,1,0,0,0,0,0,0,0,0,0,0
6,72,F,22,HEARING,15,ND,6,36,35,1.11, C, C, CORRECT,6,72,0,0,0,0,1,0,0,0,0,0,0,0,0,0,0
6,73,F,22,HEARING,15,ND,6,36,82,0.68, C, C, CORRECT,6,73,0,0,0,0,1,0,0,0,0,0,0,0,0,0,0
6,74,F,22,HEARING,15,ND,6,36,40,0.885, N, N, CORRECT,6,74,0,0,0,0,1,0,0,0,0,0,0,0,0,0,0
6,75,F,22,HEARING,15,ND,6,36,20,0.61, N, N, CORRECT,6,75,0,0,0,0,1,0,0,0,0,0,0,0,0,0,0
6,76,F,22,HEARING,15,ND,6,36,0,0.65, N, N, CORRECT,6,76,0,0,0,0,1,0,0,0,0,0,0,0,0,0,0
6,77,F,22,HEARING,15,ND,6,36,22,0.605, N, N, CORRECT,6,77,0,0,0,0,1,0,0,0,0,0,0,0,0,0,0
6,78,F,22,HEARING,15,ND,6,36,23,0.685, N, N, CORRECT,6,78,0,0,0,0,1,0,0,0,0,0,0,0,0,0,0
6,79,F,22,HEARING,15,ND,6,36,75,0.42, N, N, CORRECT,6,79,0,0,0,0,1,0,0,0,0,0,0,0,0,0,0
6,80,F,22,HEARING,15,ND,6,36,78,0.535, N, N, CORRECT,6,80,0,0,0,0,1,0,0,0,0,0,0,0,0,0,0
6,81,F,22,HEARING,15,ND,6,36,29,0.56, N, N, CORRECT,6,81,0,0,0,0,1,0,0,0,0,0,0,0,0,0,0
6,82,F,22,HEARING,15,ND,6,36,16,0.53, C, C, CORRECT,6,82,0,0,0,0,1,0,0,0,0,0,0,0,0,0,0
6,83,F,22,HEARING,15,ND,6,36,39,0.63, C, C, CORRECT,6,83,0,0,0,0,1,0,0,0,0,0,0,0,0,0,0
6,84,F,22,HEARING,15,ND,6,36,76,0.55, C, C, CORRECT,6,84,0,0,0,0,1,0,0,0,0,0,0,0,0,0,0
6,85,F,22,HEARING,15,ND,6,36,10,0.58, N, N, CORRECT,6,85,0,0,0,0,0,0,0,0,0,0,0,0,0,0,0
6,86,F,22,HEARING,15,ND,6,36,77,0.53, N, N, CORRECT,6,86,0,0,0,0,0,0,0,0,0,0,0,0,0,0,0
6,87,F,22,HEARING,15,ND,6,36,26,0.935, C, C, CORRECT,6,87,0,0,0,0,0,0,0,0,0,0,0,0,0,0,0
7,1,M,27,HEARING,11,ND,5,34,65,1.48, C, C, CORRECT,7,1,1,1,1,1,1,1,1,1,1,1,1,1,1,1,1
7,2,M,27,HEARING,11,ND,5,34,0,0.695, C, C, CORRECT,7,2,1,1,1,1,1,1,1,1,1,1,1,1,1,1,1
7,3,M,27,HEARING,11,ND,5,34,32,0.78, C, C, CORRECT,7,3,1,1,1,1,1,1,1,1,1,1,1,1,1,1,1
7,4,M,27,HEARING,11,ND,5,34,24,0.855, N, N, CORRECT,7,4,1,1,1,1,1,1,1,1,1,1,1,1,1,1,1
7,5,M,27,HEARING,11,ND,5,34,80,0.805, C, N, INCORRECT,7,5,1,1,1,1,1,1,1,1,1,1,1,1,1,1,1
7,6,M,27,HEARING,11,ND,5,34,12,0.525, C, C, CORRECT,7,6,1,1,1,1,1,1,1,1,1,1,1,1,1,1,1
7,7,M,27,HEARING,11,ND,5,34,35,0.925, N, N, CORRECT,7,7,1,1,1,1,1,1,1,1,1,1,1,1,1,1,1
7,8,M,27,HEARING,11,ND,5,34,15,0.755, C, N, INCORRECT,7,8,1,1,1,1,1,1,1,1,1,1,1,1,1,1,1
7,9,M,27,HEARING,11,ND,5,34,14,0.685, C, C, CORRECT,7,9,1,1,1,1,1,1,1,1,1,1,1,1,1,1,1
7,10,M,27,HEARING,11,ND,5,34,20,0.7, C, N, INCORRECT,7,10,1,1,1,1,1,1,1,1,1,1,1,1,1,1,1
7,11,M,27,HEARING,11,ND,5,34,41,1, N, N, CORRECT,7,11,1,1,1,1,1,1,1,1,1,1,1,1,1,1,1
7,12,M,27,HEARING,11,ND,5,34,21,0.785, N, C, INCORRECT,7,12,1,1,1,1,1,1,1,1,1,1,1,1,1,1,1
7,13,M,27,HEARING,11,ND,5,34,16,0.895, N, N, CORRECT,7,13,1,1,1,1,1,1,1,1,1,1,1,1,1,1,1
7,14,M,27,HEARING,11,ND,5,34,25,0.705, N, N, CORRECT,7,14,1,1,1,1,1,1,1,1,1,1,1,1,1,1,1
7,15,M,27,HEARING,11,ND,5,34,9,0.73, C, C, CORRECT,7,15,1,1,1,1,1,1,1,1,1,1,1,1,1,1,1
7,16,M,27,HEARING,11,ND,5,34,46,0.905, N, C, INCORRECT,7,16,1,1,1,1,1,1,1,1,1,1,1,1,1,1,1
7,17,M,27,HEARING,11,ND,5,34,83,0.94, N, N, CORRECT,7,17,1,1,1,1,1,1,1,1,1,1,1,1,1,1,1
7,18,M,27,HEARING,11,ND,5,34,40,0.685, C, C, CORRECT,7,18,1,1,1,1,1,1,1,1,1,1,1,1,1,1,1
7,19,M,27,HEARING,11,ND,5,34,81,0.845, N, N, CORRECT,7,19,1,1,1,1,1,1,1,1,1,1,1,1,1,1,1
7,20,M,27,HEARING,11,ND,5,34,70,0.89, N, N, CORRECT,7,20,1,1,1,1,1,1,1,1,1,1,1,1,1,1,1
7,21,M,27,HEARING,11,ND,5,34,76,0.89, N, N, CORRECT,7,21,1,1,1,1,1,1,1,1,1,1,1,1,1,1,1
7,22,M,27,HEARING,11,ND,5,34,66,0.7, C, N, INCORRECT,7,22,1,1,1,1,1,1,1,1,1,1,1,1,1,1,1
7,23,M,27,HEARING,11,ND,5,34,23,0.635, N, N, CORRECT,7,23,1,1,1,1,1,1,1,1,1,1,1,1,1,1,1
7,24,M,27,HEARING,11,ND,5,34,22,0.82, N, N, CORRECT,7,24,1,1,1,1,1,1,1,1,1,1,1,1,1,1,1
7,25,M,27,HEARING,11,ND,5,34,38,0.93, C, C, CORRECT,7,25,1,1,1,1,1,1,1,1,1,1,1,1,1,1,1
7,26,M,27,HEARING,11,ND,5,34,59,0.795, N, N, CORRECT,7,26,1,1,1,1,1,1,1,1,1,1,1,1,1,1,1
7,27,M,27,HEARING,11,ND,5,34,55,0.7, C, N, INCORRECT,7,27,1,1,1,1,1,1,1,1,1,1,1,1,1,1,1
7,28,M,27,HEARING,11,ND,5,34,8,0.715, C, N, INCORRECT,7,28,1,1,1,1,1,1,1,1,1,1,1,1,1,1,1
7,29,M,27,HEARING,11,ND,5,34,63,0.57, N, C, INCORRECT,7,29,1,1,1,1,1,1,1,1,1,1,1,1,1,1,1
7,30,M,27,HEARING,11,ND,5,34,82,0.58, N, N, CORRECT,7,30,1,1,1,1,1,1,1,1,1,1,1,1,1,1,1
7,31,M,27,HEARING,11,ND,5,34,34,0.655, C, N, INCORRECT,7,31,1,1,1,1,1,1,1,1,1,1,1,1,1,1,1
7,32,M,27,HEARING,11,ND,5,34,52,0.615, N, N, CORRECT,7,32,1,1,1,1,1,1,1,1,1,1,1,1,1,1,1
7,33,M,27,HEARING,11,ND,5,34,6,1.13, N, C, INCORRECT,7,33,1,1,1,1,1,1,1,1,1,1,1,1,1,1,1
7,34,M,27,HEARING,11,ND,5,34,2,0.87, N, N, CORRECT,7,34,1,1,1,1,1,1,1,1,1,1,1,1,1,1,1
7,35,M,27,HEARING,11,ND,5,34,64,0.74, N, N, CORRECT,7,35,1,1,1,1,1,1,1,1,1,1,1,1,1,1,1
7,36,M,27,HEARING,11,ND,5,34,71,0.735, C, C, CORRECT,7,36,1,1,1,1,1,1,1,1,1,1,1,1,1,1,1
7,37,M,27,HEARING,11,ND,5,34,48,0.84, N, N, CORRECT,7,37,1,1,1,1,1,1,1,1,1,1,1,1,1,0,0
7,38,M,27,HEARING,11,ND,5,34,73,0.68, C, C, CORRECT,7,38,1,1,1,1,1,1,1,1,1,1,1,1,1,0,0
7,39,M,27,HEARING,11,ND,5,34,7,0.785, N, N, CORRECT,7,39,1,1,1,1,1,1,1,1,1,1,1,1,1,0,0
7,40,M,27,HEARING,11,ND,5,34,51,0.66, N, C, INCORRECT,7,40,0,1,1,1,1,1,1,1,1,1,1,1,1,0,0
7,41,M,27,HEARING,11,ND,5,34,36,0.825, C, C, CORRECT,7,41,0,1,1,1,1,1,1,1,1,1,1,1,1,0,0
7,42,M,27,HEARING,11,ND,5,34,3,0.745, C, C, CORRECT,7,42,0,1,1,1,1,1,1,1,1,1,1,1,1,0,0
7,43,M,27,HEARING,11,ND,5,34,86,1.135, C, N, INCORRECT,7,43,0,1,1,1,1,1,1,1,1,1,1,1,1,0,0
7,44,M,27,HEARING,11,ND,5,34,84,0.695, N, N, CORRECT,7,44,0,0,1,1,1,1,1,1,1,1,1,1,1,0,0
7,45,M,27,HEARING,11,ND,5,34,56,0.74, C, N, INCORRECT,7,45,0,0,1,0,1,1,1,1,1,1,1,1,1,0,0
7,46,M,27,HEARING,11,ND,5,34,85,0.68, C, C, CORRECT,7,46,0,0,1,0,1,1,1,1,1,1,1,1,1,0,0
7,47,M,27,HEARING,11,ND,5,34,13,0.73, C, N, INCORRECT,7,47,0,0,1,0,1,1,1,1,1,1,1,1,1,0,0
7,48,M,27,HEARING,11,ND,5,34,45,0.775, N, C, INCORRECT,7,48,0,0,1,0,1,1,1,1,1,1,1,1,1,0,0
7,49,M,27,HEARING,11,ND,5,34,69,0.81, N, C, INCORRECT,7,49,0,0,0,0,1,1,1,1,1,1,1,1,1,0,0
7,50,M,27,HEARING,11,ND,5,34,57,0.725, C, N, INCORRECT,7,50,0,0,0,0,1,1,1,1,1,1,1,1,1,0,0
7,51,M,27,HEARING,11,ND,5,34,43,0.795, N, C, INCORRECT,7,51,0,0,0,0,1,1,1,1,1,1,1,1,1,0,0
7,52,M,27,HEARING,11,ND,5,34,39,0.555, N, C, INCORRECT,7,52,0,0,0,0,1,1,1,1,1,1,1,1,1,0,0
7,53,M,27,HEARING,11,ND,5,34,37,0.845, N, C, INCORRECT,7,53,0,0,0,0,1,1,1,1,1,1,1,1,1,0,0
7,54,M,27,HEARING,11,ND,5,34,78,0.535, N, N, CORRECT,7,54,0,0,0,0,1,1,1,1,1,1,1,1,1,0,0
7,55,M,27,HEARING,11,ND,5,34,18,0.82, N, N, CORRECT,7,55,0,0,0,0,1,1,1,1,1,1,1,1,1,0,0
7,56,M,27,HEARING,11,ND,5,34,53,0.91, N, N, CORRECT,7,56,0,0,0,0,0,1,1,1,1,1,1,1,1,0,0
7,57,M,27,HEARING,11,ND,5,34,61,0.77, N, N, CORRECT,7,57,0,0,0,0,0,1,1,1,1,1,1,1,1,0,0
7,58,M,27,HEARING,11,ND,5,34,68,0.655, N, N, CORRECT,7,58,0,0,0,0,0,0,1,1,1,1,1,1,1,0,0
7,59,M,27,HEARING,11,ND,5,34,75,0.795, C, N, INCORRECT,7,59,0,0,0,0,0,0,0,0,0,0,0,0,0,0,0
7,60,M,27,HEARING,11,ND,5,34,10,0.82, N, N, CORRECT,7,60,0,0,0,0,0,0,0,0,0,0,0,0,0,0,0
7,61,M,27,HEARING,11,ND,5,34,1,0.79, C, C, CORRECT,7,61,0,0,0,0,0,0,0,0,0,0,0,0,0,0,0
7,62,M,27,HEARING,11,ND,5,34,44,0.515, N, N, CORRECT,7,62,0,0,0,0,0,0,0,0,0,0,0,0,0,0,0
7,63,M,27,HEARING,11,ND,5,34,49,0.775, N, N, CORRECT,7,63,0,0,0,0,0,0,0,0,0,0,0,0,0,0,0
7,64,M,27,HEARING,11,ND,5,34,5,0.855, C, N, INCORRECT,7,64,0,0,0,0,0,0,0,0,0,0,0,0,0,0,0
7,65,M,27,HEARING,11,ND,5,34,58,0.675, N, N, CORRECT,7,65,0,0,0,0,0,0,0,0,0,0,0,0,0,0,0
7,66,M,27,HEARING,11,ND,5,34,47,0.635, N, C, INCORRECT,7,66,0,0,0,0,0,0,0,0,0,0,0,0,0,0,0
7,67,M,27,HEARING,11,ND,5,34,17,0.755, C, C, CORRECT,7,67,0,0,0,0,0,0,0,0,0,0,0,0,0,0,0
7,68,M,27,HEARING,11,ND,5,34,50,0.705, C, C, CORRECT,7,68,0,0,0,0,0,0,0,0,0,0,0,0,0,0,0
7,69,M,27,HEARING,11,ND,5,34,74,0.775, N, C, INCORRECT,7,69,0,0,0,0,0,0,0,0,0,0,0,0,0,0,0
7,70,M,27,HEARING,11,ND,5,34,31,0.665, N, N, CORRECT,7,70,0,0,0,0,0,0,0,0,0,0,0,0,0,0,0
7,71,M,27,HEARING,11,ND,5,34,27,0.7, N, C, INCORRECT,7,71,0,0,0,0,0,0,0,0,0,0,0,0,0,0,0
7,72,M,27,HEARING,11,ND,5,34,77,0.665, C, C, CORRECT,7,72,0,0,0,0,0,0,0,0,0,0,0,0,0,0,0
7,73,M,27,HEARING,11,ND,5,34,72,0.74, C, N, INCORRECT,7,73,0,0,0,0,0,0,0,0,0,0,0,0,0,0,0
7,74,M,27,HEARING,11,ND,5,34,29,0.715, N, C, INCORRECT,7,74,0,0,0,0,0,0,0,0,0,0,0,0,0,0,0
7,75,M,27,HEARING,11,ND,5,34,62,0.97, N, N, CORRECT,7,75,0,0,0,0,0,0,0,0,0,0,0,0,0,0,0
7,76,M,27,HEARING,11,ND,5,34,30,0.87, C, N, INCORRECT,7,76,0,0,0,0,0,0,0,0,0,0,0,0,0,0,0
7,77,M,27,HEARING,11,ND,5,34,19,0.845, N, N, CORRECT,7,77,0,0,0,0,0,0,0,0,0,0,0,0,0,0,0
7,78,M,27,HEARING,11,ND,5,34,67,0.76, N, N, CORRECT,7,78,0,0,0,0,0,0,0,0,0,0,0,0,0,0,0
7,79,M,27,HEARING,11,ND,5,34,4,0.755, N, N, CORRECT,7,79,0,0,0,0,0,0,0,0,0,0,0,0,0,0,0
7,80,M,27,HEARING,11,ND,5,34,60,0.685, N, C, INCORRECT,7,80,0,0,0,0,0,0,0,0,0,0,0,0,0,0,0
7,81,M,27,HEARING,11,ND,5,34,54,0.495, N, C, INCORRECT,7,81,0,0,0,0,0,0,0,0,0,0,0,0,0,0,0
7,82,M,27,HEARING,11,ND,5,34,11,0.705, N, N, CORRECT,7,82,0,0,0,0,0,0,0,0,0,0,0,0,0,0,0
7,83,M,27,HEARING,11,ND,5,34,42,0.78, C, C, CORRECT,7,83,0,0,0,0,0,0,0,0,0,0,0,0,0,0,0
7,84,M,27,HEARING,11,ND,5,34,26,0.715, N, N, CORRECT,7,84,0,0,0,0,0,0,0,0,0,0,0,0,0,0,0
7,85,M,27,HEARING,11,ND,5,34,33,0.76, C, C, CORRECT,7,85,0,0,0,0,0,0,0,0,0,0,0,0,0,0,0
7,86,M,27,HEARING,11,ND,5,34,79,0.775, C, N, INCORRECT,7,86,0,0,0,0,0,0,0,0,0,0,0,0,0,0,0
7,87,M,27,HEARING,11,ND,5,34,28,0.75, C, C, CORRECT,7,87,0,0,0,0,0,0,0,0,0,0,0,0,0,0,0
8,1,F,28,HEARING,16,ND,6,36,15,1.02, C, C, CORRECT,8,1,1,1,1,1,1,1,1,1,1,1,1,1,1,1,1
8,2,F,28,HEARING,16,ND,6,36,26,0.77, N, N, CORRECT,8,2,1,1,1,1,1,1,1,1,1,1,1,1,1,1,1
8,3,F,28,HEARING,16,ND,6,36,24,0.78, C, C, CORRECT,8,3,1,1,1,1,1,1,1,1,1,1,1,1,1,1,1
8,4,F,28,HEARING,16,ND,6,36,29,0.715, N, N, CORRECT,8,4,1,1,1,1,1,1,1,1,1,1,1,1,1,1,1
8,5,F,28,HEARING,16,ND,6,36,8,0.85, N, N, CORRECT,8,5,1,1,1,1,1,1,1,1,1,1,1,1,1,1,1
8,6,F,28,HEARING,16,ND,6,36,49,1.08, C, C, CORRECT,8,6,1,1,1,1,1,1,1,1,1,1,1,1,1,1,1
8,7,F,28,HEARING,16,ND,6,36,1,0.85, N, N, CORRECT,8,7,1,1,1,1,1,1,1,1,1,1,1,1,1,1,1
8,8,F,28,HEARING,16,ND,6,36,72,0.85, N, N, CORRECT,8,8,1,1,1,1,1,1,1,1,1,1,1,1,1,1,1
8,9,F,28,HEARING,16,ND,6,36,69,0.735, C, C, CORRECT,8,9,1,1,1,1,1,1,1,1,1,1,1,1,1,1,1
8,10,F,28,HEARING,16,ND,6,36,50,1.02, N, N, CORRECT,8,10,1,1,1,1,1,1,1,1,1,1,1,1,1,1,1
8,11,F,28,HEARING,16,ND,6,36,32,0.79, N, N, CORRECT,8,11,1,1,1,1,1,1,1,1,1,1,1,1,1,1,1
8,12,F,28,HEARING,16,ND,6,36,14,0.57, C, C, CORRECT,8,12,1,1,1,1,1,1,1,1,1,1,1,1,1,1,1
8,13,F,28,HEARING,16,ND,6,36,84,0.55, N, N, CORRECT,8,13,1,1,1,1,1,1,1,1,1,1,1,1,1,1,1
8,14,F,28,HEARING,16,ND,6,36,78,0.665, C, C, CORRECT,8,14,1,1,1,1,1,1,1,1,1,1,1,1,1,1,1
8,15,F,28,HEARING,16,ND,6,36,18,0.54, C, C, CORRECT,8,15,1,1,1,1,1,1,1,1,1,1,1,1,1,1,1
8,16,F,28,HEARING,16,ND,6,36,42,1.695, N, N, CORRECT,8,16,1,1,1,1,1,1,1,1,1,1,1,1,1,1,1
8,17,F,28,HEARING,16,ND,6,36,70,0.79, N, N, CORRECT,8,17,1,1,1,1,1,1,1,1,1,1,1,1,1,1,1
8,18,F,28,HEARING,16,ND,6,36,46,0.535, C, C, CORRECT,8,18,1,1,1,1,1,1,1,1,1,1,1,1,1,1,1
8,19,F,28,HEARING,16,ND,6,36,11,0.55, C, C, CORRECT,8,19,1,1,1,1,1,1,1,1,1,1,1,1,1,1,1
8,20,F,28,HEARING,16,ND,6,36,80,1.09, N, N, CORRECT,8,20,1,1,1,1,1,1,1,1,1,1,1,1,1,1,1
8,21,F,28,HEARING,16,ND,6,36,45,0.76, N, N, CORRECT,8,21,1,1,1,1,1,1,1,1,1,1,1,1,1,1,1
8,22,F,28,HEARING,16,ND,6,36,17,0.79, N, N, CORRECT,8,22,1,1,1,1,1,1,1,1,1,1,1,1,1,1,1
8,23,F,28,HEARING,16,ND,6,36,82,0.97, N, N, CORRECT,8,23,1,1,1,1,1,1,1,1,1,1,1,1,1,1,1
8,24,F,28,HEARING,16,ND,6,36,25,0.69, N, N, CORRECT,8,24,1,1,1,1,1,1,1,1,1,1,1,1,1,1,1
8,25,F,28,HEARING,16,ND,6,36,62,0.695, C, C, CORRECT,8,25,1,1,1,1,1,1,1,1,1,1,1,1,1,1,1
8,26,F,28,HEARING,16,ND,6,36,79,0.79, N, N, CORRECT,8,26,1,1,1,1,1,1,1,1,1,1,1,1,1,1,1
8,27,F,28,HEARING,16,ND,6,36,60,0.615, N, N, CORRECT,8,27,1,1,1,1,1,1,1,1,1,1,1,1,1,1,1
8,28,F,28,HEARING,16,ND,6,36,3,0.83, C, C, CORRECT,8,28,1,1,1,1,1,1,1,1,1,1,1,1,1,1,1
8,29,F,28,HEARING,16,ND,6,36,39,0.72, N, N, CORRECT,8,29,1,1,1,1,1,1,1,1,1,1,1,1,1,1,1
8,30,F,28,HEARING,16,ND,6,36,59,1.08, C, C, CORRECT,8,30,1,1,1,1,1,1,1,1,1,1,1,1,1,1,1
8,31,F,28,HEARING,16,ND,6,36,30,0.675, N, N, CORRECT,8,31,1,1,1,1,1,1,1,1,1,1,1,1,1,1,1
8,32,F,28,HEARING,16,ND,6,36,31,1.285, N, N, CORRECT,8,32,1,1,1,1,1,1,1,1,1,1,1,1,1,1,1
8,33,F,28,HEARING,16,ND,6,36,43,1.2, C, C, CORRECT,8,33,1,1,1,1,1,1,1,1,1,1,1,1,1,1,1
8,34,F,28,HEARING,16,ND,6,36,6,0.63, N, N, CORRECT,8,34,1,1,1,1,1,1,1,1,1,1,1,1,1,1,1
8,35,F,28,HEARING,16,ND,6,36,58,1.07, N, N, CORRECT,8,35,1,1,1,1,1,1,1,1,1,1,1,1,1,1,1
8,36,F,28,HEARING,16,ND,6,36,16,0.815, C, C, CORRECT,8,36,1,1,1,1,1,1,1,1,1,1,1,1,1,1,1
8,37,F,28,HEARING,16,ND,6,36,7,0.735, C, C, CORRECT,8,37,1,1,1,1,1,1,1,1,1,1,1,1,1,1,1
8,38,F,28,HEARING,16,ND,6,36,2,1.995, C, N, INCORRECT,8,38,1,1,1,1,1,1,1,1,1,1,1,1,1,0,0
8,39,F,28,HEARING,16,ND,6,36,76,0.6, N, N, CORRECT,8,39,0,1,1,1,1,1,1,1,1,1,1,1,1,0,0
8,40,F,28,HEARING,16,ND,6,36,66,0.585, C, C, CORRECT,8,40,0,1,1,1,1,1,1,1,1,1,1,1,1,0,0
8,41,F,28,HEARING,16,ND,6,36,57,0.525, N, N, CORRECT,8,41,0,1,1,1,1,1,1,1,1,1,1,1,1,0,0
8,42,F,28,HEARING,16,ND,6,36,71,0.935, N, C, INCORRECT,8,42,0,1,1,1,1,1,1,1,1,1,1,1,1,0,0
8,43,F,28,HEARING,16,ND,6,36,37,0.875, C, C, CORRECT,8,43,0,0,1,1,1,1,1,1,1,1,1,1,1,0,0
8,44,F,28,HEARING,16,ND,6,36,41,0.655, C, C, CORRECT,8,44,0,0,1,1,1,1,1,1,1,1,1,1,1,0,0
8,45,F,28,HEARING,16,ND,6,36,36,1.085, C, C, CORRECT,8,45,0,0,1,1,1,1,1,1,1,1,1,1,1,0,0
8,46,F,28,HEARING,16,ND,6,36,51,0.87, N, N, CORRECT,8,46,0,0,1,0,1,1,1,1,1,1,1,1,1,0,0
8,47,F,28,HEARING,16,ND,6,36,19,0.705, N, N, CORRECT,8,47,0,0,1,0,1,1,1,1,1,1,1,1,1,0,0
8,48,F,28,HEARING,16,ND,6,36,47,0.915, N, N, CORRECT,8,48,0,0,1,0,1,1,1,1,1,1,1,1,1,0,0
8,49,F,28,HEARING,16,ND,6,36,44,1.915, C, C, CORRECT,8,49,0,0,1,0,1,1,1,1,1,1,1,1,1,0,0
8,50,F,28,HEARING,16,ND,6,36,65,0.81, N, N, CORRECT,8,50,0,0,0,0,1,1,1,1,1,1,1,1,1,0,0
8,51,F,28,HEARING,16,ND,6,36,75,0.605, N, N, CORRECT,8,51,0,0,0,0,1,1,1,1,1,1,1,1,1,0,0
8,52,F,28,HEARING,16,ND,6,36,52,0.66, N, N, CORRECT,8,52,0,0,0,0,1,1,1,1,1,1,1,1,1,0,0
8,53,F,28,HEARING,16,ND,6,36,74,0.795, N, N, CORRECT,8,53,0,0,0,0,1,1,1,1,1,1,1,1,1,0,0
8,54,F,28,HEARING,16,ND,6,36,73,0.59, N, N, CORRECT,8,54,0,0,0,0,1,1,0,0,0,0,0,0,0,0,0
8,55,F,28,HEARING,16,ND,6,36,34,0.54, N, N, CORRECT,8,55,0,0,0,0,1,0,0,0,0,0,0,0,0,0,0
8,56,F,28,HEARING,16,ND,6,36,55,0.61, N, N, CORRECT,8,56,0,0,0,0,1,0,0,0,0,0,0,0,0,0,0
8,57,F,28,HEARING,16,ND,6,36,12,0.945, C, C, CORRECT,8,57,0,0,0,0,1,0,0,0,0,0,0,0,0,0,0
8,58,F,28,HEARING,16,ND,6,36,9,0.815, C, C, CORRECT,8,58,0,0,0,0,1,0,0,0,0,0,0,0,0,0,0
8,59,F,28,HEARING,16,ND,6,36,81,1.335, N, N, CORRECT,8,59,0,0,0,0,1,0,0,0,0,0,0,0,0,0,0
8,60,F,28,HEARING,16,ND,6,36,23,0.82, N, N, CORRECT,8,60,0,0,0,0,1,0,0,0,0,0,0,0,0,0,0
8,61,F,28,HEARING,16,ND,6,36,83,1.23, C, C, CORRECT,8,61,0,0,0,0,1,0,0,0,0,0,0,0,0,0,0
8,62,F,28,HEARING,16,ND,6,36,22,0.72, N, N, CORRECT,8,62,0,0,0,0,1,0,0,0,0,0,0,0,0,0,0
8,63,F,28,HEARING,16,ND,6,36,28,0.565, C, C, CORRECT,8,63,0,0,0,0,1,0,0,0,0,0,0,0,0,0,0
8,64,F,28,HEARING,16,ND,6,36,64,0.655, C, C, CORRECT,8,64,0,0,0,0,1,0,0,0,0,0,0,0,0,0,0
8,65,F,28,HEARING,16,ND,6,36,68,0.795, C, C, CORRECT,8,65,0,0,0,0,1,0,0,0,0,0,0,0,0,0,0
8,66,F,28,HEARING,16,ND,6,36,86,0.655, C, C, CORRECT,8,66,0,0,0,0,1,0,0,0,0,0,0,0,0,0,0
8,67,F,28,HEARING,16,ND,6,36,35,0.72, C, C, CORRECT,8,67,0,0,0,0,1,0,0,0,0,0,0,0,0,0,0
8,68,F,28,HEARING,16,ND,6,36,53,1.08, N, N, CORRECT,8,68,0,0,0,0,1,0,0,0,0,0,0,0,0,0,0
8,69,F,28,HEARING,16,ND,6,36,54,0.7, N, N, CORRECT,8,69,0,0,0,0,1,0,0,0,0,0,0,0,0,0,0
8,70,F,28,HEARING,16,ND,6,36,85,0.725, C, N, INCORRECT,8,70,0,0,0,0,1,0,0,0,0,0,0,0,0,0,0
8,71,F,28,HEARING,16,ND,6,36,5,0.665, N, N, CORRECT,8,71,0,0,0,0,1,0,0,0,0,0,0,0,0,0,0
8,72,F,28,HEARING,16,ND,6,36,77,0.555, N, N, CORRECT,8,72,0,0,0,0,1,0,0,0,0,0,0,0,0,0,0
8,73,F,28,HEARING,16,ND,6,36,48,0.6, C, C, CORRECT,8,73,0,0,0,0,1,0,0,0,0,0,0,0,0,0,0
8,74,F,28,HEARING,16,ND,6,36,67,0.85, N, N, CORRECT,8,74,0,0,0,0,1,0,0,0,0,0,0,0,0,0,0
8,75,F,28,HEARING,16,ND,6,36,38,0.675, N, N, CORRECT,8,75,0,0,0,0,1,0,0,0,0,0,0,0,0,0,0
8,76,F,28,HEARING,16,ND,6,36,4,1.06, N, N, CORRECT,8,76,0,0,0,0,1,0,0,0,0,0,0,0,0,0,0
8,77,F,28,HEARING,16,ND,6,36,20,0.685, N, N, CORRECT,8,77,0,0,0,0,1,0,0,0,0,0,0,0,0,0,0
8,78,F,28,HEARING,16,ND,6,36,10,0.585, N, N, CORRECT,8,78,0,0,0,0,1,0,0,0,0,0,0,0,0,0,0
8,79,F,28,HEARING,16,ND,6,36,61,0.695, C, C, CORRECT,8,79,0,0,0,0,1,0,0,0,0,0,0,0,0,0,0
8,80,F,28,HEARING,16,ND,6,36,40,0.695, C, C, CORRECT,8,80,0,0,0,0,1,0,0,0,0,0,0,0,0,0,0
8,81,F,28,HEARING,16,ND,6,36,21,0.765, N, N, CORRECT,8,81,0,0,0,0,1,0,0,0,0,0,0,0,0,0,0
8,82,F,28,HEARING,16,ND,6,36,63,0.675, N, N, CORRECT,8,82,0,0,0,0,1,0,0,0,0,0,0,0,0,0,0
8,83,F,28,HEARING,16,ND,6,36,27,0.665, C, C, CORRECT,8,83,0,0,0,0,1,0,0,0,0,0,0,0,0,0,0
8,84,F,28,HEARING,16,ND,6,36,33,0.76, C, C, CORRECT,8,84,0,0,0,0,1,0,0,0,0,0,0,0,0,0,0
8,85,F,28,HEARING,16,ND,6,36,13,0.935, N, N, CORRECT,8,85,0,0,0,0,0,0,0,0,0,0,0,0,0,0,0
8,86,F,28,HEARING,16,ND,6,36,0,0.445, C, C, CORRECT,8,86,0,0,0,0,0,0,0,0,0,0,0,0,0,0,0
8,87,F,28,HEARING,16,ND,6,36,56,0.71, C, C, CORRECT,8,87,0,0,0,0,0,0,0,0,0,0,0,0,0,0,0
9,1,M,59,HEARING,13,ND,6,34,41,0.97, N, N, CORRECT,9,1,1,1,1,1,1,1,1,1,1,1,1,1,1,1,1
9,2,M,59,HEARING,13,ND,6,34,49,0.62, C, C, CORRECT,9,2,1,1,1,1,1,1,1,1,1,1,1,1,1,1,1
9,3,M,59,HEARING,13,ND,6,34,69,0.485, C, N, INCORRECT,9,3,1,1,1,1,1,1,1,1,1,1,1,1,1,1,1
9,4,M,59,HEARING,13,ND,6,34,3,0.74, C, C, CORRECT,9,4,1,1,1,1,1,1,1,1,1,1,1,1,1,1,1
9,5,M,59,HEARING,13,ND,6,34,16,0.35, C, N, INCORRECT,9,5,1,1,1,1,1,1,1,1,1,1,1,1,1,1,1
9,6,M,59,HEARING,13,ND,6,34,52,0.475, C, N, INCORRECT,9,6,1,1,1,1,1,1,1,1,1,1,1,1,1,1,1
9,7,M,59,HEARING,13,ND,6,34,12,0.525, N, N, CORRECT,9,7,1,1,1,1,1,1,1,1,1,1,1,1,1,1,1
9,8,M,59,HEARING,13,ND,6,34,42,0.495, C, N, INCORRECT,9,8,1,1,1,1,1,1,1,1,1,1,1,1,1,1,1
9,9,M,59,HEARING,13,ND,6,34,36,0.355, C, C, CORRECT,9,9,1,1,1,1,1,1,1,1,1,1,1,1,1,1,1
9,10,M,59,HEARING,13,ND,6,34,48,0.495, C, N, INCORRECT,9,10,1,1,1,1,1,1,1,1,1,1,1,1,1,1,1
9,11,M,59,HEARING,13,ND,6,34,20,0.6, N, N, CORRECT,9,11,1,1,1,1,1,1,1,1,1,1,1,1,1,1,1
9,12,M,59,HEARING,13,ND,6,34,59,0.345, C, C, CORRECT,9,12,1,1,1,1,1,1,1,1,1,1,1,1,1,1,1
9,13,M,59,HEARING,13,ND,6,34,7,0.39, C, C, CORRECT,9,13,1,1,1,1,1,1,1,1,1,1,1,1,1,1,1
9,14,M,59,HEARING,13,ND,6,34,62,0.42, C, C, CORRECT,9,14,1,1,1,1,1,1,1,1,1,1,1,1,1,1,1
9,15,M,59,HEARING,13,ND,6,34,14,0.36, C, C, CORRECT,9,15,1,1,1,1,1,1,1,1,1,1,1,1,1,1,1
9,16,M,59,HEARING,13,ND,6,34,47,0.48, C, C, CORRECT,9,16,1,1,1,1,1,1,1,1,1,1,1,1,1,1,1
9,17,M,59,HEARING,13,ND,6,34,83,0.73, N, N, CORRECT,9,17,1,1,1,1,1,1,1,1,1,1,1,1,1,1,1
9,18,M,59,HEARING,13,ND,6,34,26,0.435, N, N, CORRECT,9,18,1,1,1,1,1,1,1,1,1,1,1,1,1,1,1
9,19,M,59,HEARING,13,ND,6,34,46,0.695, N, N, CORRECT,9,19,1,1,1,1,1,1,1,1,1,1,1,1,1,1,1
9,20,M,59,HEARING,13,ND,6,34,58,0.365, C, C, CORRECT,9,20,1,1,1,1,1,1,1,1,1,1,1,1,1,1,1
9,21,M,59,HEARING,13,ND,6,34,0,0.575, C, C, CORRECT,9,21,1,1,1,1,1,1,1,1,1,1,1,1,1,1,1
9,22,M,59,HEARING,13,ND,6,34,15,0.38, C, N, INCORRECT,9,22,1,1,1,1,1,1,1,1,1,1,1,1,1,1,1
9,23,M,59,HEARING,13,ND,6,34,17,0.355, C, N, INCORRECT,9,23,1,1,1,1,1,1,1,1,1,1,1,1,1,1,1
9,24,M,59,HEARING,13,ND,6,34,63,0.475, N, N, CORRECT,9,24,1,1,1,1,1,1,1,1,1,1,1,1,1,1,1
9,25,M,59,HEARING,13,ND,6,34,4,0.555, N, N, CORRECT,9,25,1,1,1,1,1,1,1,1,1,1,1,1,1,1,1
9,26,M,59,HEARING,13,ND,6,34,65,0.675, C, C, CORRECT,9,26,1,1,1,1,1,1,1,1,1,1,1,1,1,1,1
9,27,M,59,HEARING,13,ND,6,34,73,0.485, N, N, CORRECT,9,27,1,1,1,1,1,1,1,1,0,1,1,1,1,1,1
9,28,M,59,HEARING,13,ND,6,34,68,0.38, C, N, INCORRECT,9,28,1,1,1,1,1,1,1,1,0,1,1,1,1,1,1
9,29,M,59,HEARING,13,ND,6,34,22,0.53, C, C, CORRECT,9,29,1,1,1,1,1,1,1,1,0,1,0,1,1,1,1
9,30,M,59,HEARING,13,ND,6,34,70,0.545, C, C, CORRECT,9,30,1,1,1,1,1,0,1,1,0,1,0,1,1,1,1
9,31,M,59,HEARING,13,ND,6,34,25,0.43, C, C, CORRECT,9,31,1,1,1,1,1,0,0,0,0,0,0,0,0,1,1
9,32,M,59,HEARING,13,ND,6,34,40,0.515, N, N, CORRECT,9,32,1,1,1,1,1,0,0,0,0,0,0,0,0,1,1
9,33,M,59,HEARING,13,ND,6,34,57,0.48, C, C, CORRECT,9,33,1,1,1,1,1,0,0,0,0,0,0,0,0,1,1
9,34,M,59,HEARING,13,ND,6,34,71,0.51, C, N, INCORRECT,9,34,1,1,1,1,1,0,0,0,0,0,0,0,0,1,1
9,35,M,59,HEARING,13,ND,6,34,30,0.405, C, C, CORRECT,9,35,1,1,1,1,1,0,0,0,0,0,0,0,0,1,1
9,36,M,59,HEARING,13,ND,6,34,81,0.535, N, N, CORRECT,9,36,1,1,1,1,1,0,0,0,0,0,0,0,0,1,1
9,37,M,59,HEARING,13,ND,6,34,11,0.78, C, C, CORRECT,9,37,1,1,1,1,1,0,0,0,0,0,0,0,0,1,1
9,38,M,59,HEARING,13,ND,6,34,38,0.54, C, C, CORRECT,9,38,1,1,1,1,1,0,0,0,0,0,0,0,0,1,1
9,39,M,59,HEARING,13,ND,6,34,55,0.615, C, N, INCORRECT,9,39,1,1,1,1,1,0,0,0,0,0,0,0,0,1,1
9,40,M,59,HEARING,13,ND,6,34,19,0.68, N, N, CORRECT,9,40,0,1,1,1,1,0,0,0,0,0,0,0,0,1,1
9,41,M,59,HEARING,13,ND,6,34,8,0.885, C, N, INCORRECT,9,41,0,1,1,1,1,0,0,0,0,0,0,0,0,1,1
9,42,M,59,HEARING,13,ND,6,34,21,0.585, C, C, CORRECT,9,42,0,0,1,1,1,0,0,0,0,0,0,0,0,1,1
9,43,M,59,HEARING,13,ND,6,34,74,0.595, C, N, INCORRECT,9,43,0,0,1,1,1,0,0,0,0,0,0,0,0,1,1
9,44,M,59,HEARING,13,ND,6,34,77,0.665, N, N, CORRECT,9,44,0,0,1,1,1,0,0,0,0,0,0,0,0,1,1
9,45,M,59,HEARING,13,ND,6,34,86,0.57, C, N, INCORRECT,9,45,0,0,1,1,1,0,0,0,0,0,0,0,0,1,1
9,46,M,59,HEARING,13,ND,6,34,64,0.52, C, C, CORRECT,9,46,0,0,1,1,1,0,0,0,0,0,0,0,0,1,1
9,47,M,59,HEARING,13,ND,6,34,51,0.57, C, C, CORRECT,9,47,0,0,1,0,1,0,0,0,0,0,0,0,0,1,1
9,48,M,59,HEARING,13,ND,6,34,50,0.575, C, N, INCORRECT,9,48,0,0,1,0,1,0,0,0,0,0,0,0,0,1,1
9,49,M,59,HEARING,13,ND,6,34,18,0.465, C, N, INCORRECT,9,49,0,0,0,0,1,0,0,0,0,0,0,0,0,1,1
9,50,M,59,HEARING,13,ND,6,34,29,0.48, N, N, CORRECT,9,50,0,0,0,0,1,0,0,0,0,0,0,0,0,1,1
9,51,M,59,HEARING,13,ND,6,34,84,0.565, C, C, CORRECT,9,51,0,0,0,0,1,0,0,0,0,0,0,0,0,1,1
9,52,M,59,HEARING,13,ND,6,34,31,0.525, C, N, INCORRECT,9,52,0,0,0,0,1,0,0,0,0,0,0,0,0,1,1
9,53,M,59,HEARING,13,ND,6,34,79,0.43, C, N, INCORRECT,9,53,0,0,0,0,1,0,0,0,0,0,0,0,0,1,1
9,54,M,59,HEARING,13,ND,6,34,24,1.1, N, N, CORRECT,9,54,0,0,0,0,1,0,0,0,0,0,0,0,0,1,1
9,55,M,59,HEARING,13,ND,6,34,61,0.97, C, C, CORRECT,9,55,0,0,0,0,1,0,0,0,0,0,0,0,0,1,1
9,56,M,59,HEARING,13,ND,6,34,53,0.62, N, N, CORRECT,9,56,0,0,0,0,1,0,0,0,0,0,0,0,0,1,1
9,57,M,59,HEARING,13,ND,6,34,35,1.1, N, N, CORRECT,9,57,0,0,0,0,1,0,0,0,0,0,0,0,0,1,1
9,58,M,59,HEARING,13,ND,6,34,39,0.77, C, C, CORRECT,9,58,0,0,0,0,0,0,0,0,0,0,0,0,0,1,1
9,59,M,59,HEARING,13,ND,6,34,33,0.605, C, N, INCORRECT,9,59,0,0,0,0,0,0,0,0,0,0,0,0,0,1,1
9,60,M,59,HEARING,13,ND,6,34,37,0.49, C, C, CORRECT,9,60,0,0,0,0,0,0,0,0,0,0,0,0,0,1,1
9,61,M,59,HEARING,13,ND,6,34,80,0.635, C, N, INCORRECT,9,61,0,0,0,0,0,0,0,0,0,0,0,0,0,1,1
9,62,M,59,HEARING,13,ND,6,34,9,0.95, C, N, INCORRECT,9,62,0,0,0,0,0,0,0,0,0,0,0,0,0,1,1
9,63,M,59,HEARING,13,ND,6,34,1,0.59, C, C, CORRECT,9,63,0,0,0,0,0,0,0,0,0,0,0,0,0,1,1
9,64,M,59,HEARING,13,ND,6,34,2,0.63, C, N, INCORRECT,9,64,0,0,0,0,0,0,0,0,0,0,0,0,0,1,1
9,65,M,59,HEARING,13,ND,6,34,54,0.4, C, N, INCORRECT,9,65,0,0,0,0,0,0,0,0,0,0,0,0,0,0,0
9,66,M,59,HEARING,13,ND,6,34,66,0.62, C, N, INCORRECT,9,66,0,0,0,0,0,0,0,0,0,0,0,0,0,0,0
9,67,M,59,HEARING,13,ND,6,34,72,0.555, C, N, INCORRECT,9,67,0,0,0,0,0,0,0,0,0,0,0,0,0,0,0
9,68,M,59,HEARING,13,ND,6,34,43,0.435, C, C, CORRECT,9,68,0,0,0,0,0,0,0,0,0,0,0,0,0,0,0
9,69,M,59,HEARING,13,ND,6,34,60,0.625, N, N, CORRECT,9,69,0,0,0,0,0,0,0,0,0,0,0,0,0,0,0
9,70,M,59,HEARING,13,ND,6,34,45,0.425, C, C, CORRECT,9,70,0,0,0,0,0,0,0,0,0,0,0,0,0,0,0
9,71,M,59,HEARING,13,ND,6,34,23,0.405, C, C, CORRECT,9,71,0,0,0,0,0,0,0,0,0,0,0,0,0,0,0
9,72,M,59,HEARING,13,ND,6,34,34,0.34, C, C, CORRECT,9,72,0,0,0,0,0,0,0,0,0,0,0,0,0,0,0
9,73,M,59,HEARING,13,ND,6,34,13,0.53, C, C, CORRECT,9,73,0,0,0,0,0,0,0,0,0,0,0,0,0,0,0
9,74,M,59,HEARING,13,ND,6,34,44,0.58, C, N, INCORRECT,9,74,0,0,0,0,0,0,0,0,0,0,0,0,0,0,0
9,75,M,59,HEARING,13,ND,6,34,78,0.475, C, N, INCORRECT,9,75,0,0,0,0,0,0,0,0,0,0,0,0,0,0,0
9,76,M,59,HEARING,13,ND,6,34,28,0.575, N, N, CORRECT,9,76,0,0,0,0,0,0,0,0,0,0,0,0,0,0,0
9,77,M,59,HEARING,13,ND,6,34,5,0.555, N, N, CORRECT,9,77,0,0,0,0,0,0,0,0,0,0,0,0,0,0,0
9,78,M,59,HEARING,13,ND,6,34,56,0.57, C, N, INCORRECT,9,78,0,0,0,0,0,0,0,0,0,0,0,0,0,0,0
9,79,M,59,HEARING,13,ND,6,34,10,1.15, N, C, INCORRECT,9,79,0,0,0,0,0,0,0,0,0,0,0,0,0,0,0
9,80,M,59,HEARING,13,ND,6,34,82,0.6, C, N, INCORRECT,9,80,0,0,0,0,0,0,0,0,0,0,0,0,0,0,0
9,81,M,59,HEARING,13,ND,6,34,6,0.57, N, N, CORRECT,9,81,0,0,0,0,0,0,0,0,0,0,0,0,0,0,0
9,82,M,59,HEARING,13,ND,6,34,75,0.5, C, C, CORRECT,9,82,0,0,0,0,0,0,0,0,0,0,0,0,0,0,0
9,83,M,59,HEARING,13,ND,6,34,85,0.46, C, C, CORRECT,9,83,0,0,0,0,0,0,0,0,0,0,0,0,0,0,0
9,84,M,59,HEARING,13,ND,6,34,27,0.37, C, C, CORRECT,9,84,0,0,0,0,0,0,0,0,0,0,0,0,0,0,0
9,85,M,59,HEARING,13,ND,6,34,76,0.365, C, N, INCORRECT,9,85,0,0,0,0,0,0,0,0,0,0,0,0,0,0,0
9,86,M,59,HEARING,13,ND,6,34,67,0.785, N, N, CORRECT,9,86,0,0,0,0,0,0,0,0,0,0,0,0,0,0,0
9,87,M,59,HEARING,13,ND,6,34,32,0.41, C, C, CORRECT,9,87,0,0,0,0,0,0,0,0,0,0,0,0,0,0,0
10,1,M,29,HEARING,18,ND,5,34,59,1.315, C, C, CORRECT,10,1,1,1,1,1,1,1,1,1,1,1,1,1,1,1,1
10,2,M,29,HEARING,18,ND,5,34,6,0.835, C, N, INCORRECT,10,2,1,1,1,1,1,1,1,1,1,1,1,1,1,1,1
10,3,M,29,HEARING,18,ND,5,34,37,1.075, N, N, CORRECT,10,3,1,1,1,1,1,1,1,1,1,1,1,1,1,1,1
10,4,M,29,HEARING,18,ND,5,34,42,0.36, C, C, CORRECT,10,4,1,1,1,1,1,1,1,1,1,1,1,1,1,1,1
10,5,M,29,HEARING,18,ND,5,34,82,0.4, C, C, CORRECT,10,5,1,1,1,1,1,1,1,1,1,1,1,1,1,1,1
10,6,M,29,HEARING,18,ND,5,34,10,0.5, C, C, CORRECT,10,6,1,1,1,1,1,1,1,1,1,1,1,1,1,1,1
10,7,M,29,HEARING,18,ND,5,34,63,0.71, N, N, CORRECT,10,7,1,1,1,1,1,1,1,1,1,1,1,1,1,1,1
10,8,M,29,HEARING,18,ND,5,34,15,0.595, C, C, CORRECT,10,8,1,1,1,1,1,1,1,1,1,1,1,1,1,1,1
10,9,M,29,HEARING,18,ND,5,34,68,0.5, N, C, INCORRECT,10,9,1,1,1,1,1,1,1,1,1,1,1,1,1,1,1
10,10,M,29,HEARING,18,ND,5,34,65,0.505, N, N, CORRECT,10,10,1,1,1,1,1,1,1,1,1,1,1,1,1,1,1
10,11,M,29,HEARING,18,ND,5,34,22,0.5, C, N, INCORRECT,10,11,1,1,1,1,1,1,1,1,1,1,1,1,1,1,1
10,12,M,29,HEARING,18,ND,5,34,28,0.73, C, N, INCORRECT,10,12,1,1,1,1,1,1,1,1,1,1,1,1,1,1,1
10,13,M,29,HEARING,18,ND,5,34,78,0.55, C, C, CORRECT,10,13,1,1,1,1,1,1,1,1,1,1,1,1,1,1,1
10,14,M,29,HEARING,18,ND,5,34,2,0.415, N, N, CORRECT,10,14,1,1,1,1,1,1,1,1,1,1,1,1,1,1,1
10,15,M,29,HEARING,18,ND,5,34,56,0.92, N, N, CORRECT,10,15,1,1,1,1,1,1,1,1,1,1,1,1,1,1,1
10,16,M,29,HEARING,18,ND,5,34,40,0.43, N, C, INCORRECT,10,16,1,1,1,1,1,1,1,1,1,1,1,1,1,1,1
10,17,M,29,HEARING,18,ND,5,34,75,0.55, N, C, INCORRECT,10,17,1,1,1,1,1,1,1,1,1,1,1,1,1,1,1
10,18,M,29,HEARING,18,ND,5,34,17,0.39, C, C, CORRECT,10,18,1,1,1,1,1,1,1,1,1,1,1,1,1,1,1
10,19,M,29,HEARING,18,ND,5,34,9,0.35, C, N, INCORRECT,10,19,1,1,1,1,1,1,1,1,1,1,1,1,1,1,1
10,20,M,29,HEARING,18,ND,5,34,45,0.91, N, N, CORRECT,10,20,1,1,1,1,1,1,1,1,1,1,1,1,1,1,1
10,21,M,29,HEARING,18,ND,5,34,50,0.54, C, N, INCORRECT,10,21,1,1,1,1,1,1,1,1,1,1,1,1,1,1,1
10,22,M,29,HEARING,18,ND,5,34,24,0.635, N, N, CORRECT,10,22,1,1,1,1,1,1,1,1,1,1,1,1,1,1,1
10,23,M,29,HEARING,18,ND,5,34,57,0.65, N, N, CORRECT,10,23,1,1,1,1,1,1,1,1,1,1,1,1,1,1,1
10,24,M,29,HEARING,18,ND,5,34,58,0.575, N, N, CORRECT,10,24,1,1,1,1,1,1,1,1,1,1,1,1,1,1,1
10,25,M,29,HEARING,18,ND,5,34,64,1.025, N, N, CORRECT,10,25,1,1,1,1,1,1,1,1,1,1,1,1,1,1,1
10,26,M,29,HEARING,18,ND,5,34,4,0.77, C, C, CORRECT,10,26,1,1,1,1,1,1,1,1,1,1,1,1,1,1,1
10,27,M,29,HEARING,18,ND,5,34,86,0.43, C, N, INCORRECT,10,27,1,1,1,1,1,1,1,1,1,1,1,1,1,1,1
10,28,M,29,HEARING,18,ND,5,34,3,1.11, C, C, CORRECT,10,28,1,1,1,1,1,1,1,1,1,1,1,1,1,1,1
10,29,M,29,HEARING,18,ND,5,34,54,0.6, N, N, CORRECT,10,29,1,1,1,1,1,1,1,1,1,1,1,1,1,1,1
10,30,M,29,HEARING,18,ND,5,34,27,0.635, C, C, CORRECT,10,30,1,1,1,1,1,1,1,1,1,1,1,1,1,1,1
10,31,M,29,HEARING,18,ND,5,34,36,0.61, N, N, CORRECT,10,31,1,1,1,1,1,1,1,1,1,1,1,1,1,1,1
10,32,M,29,HEARING,18,ND,5,34,25,0.535, C, N, INCORRECT,10,32,1,1,1,1,1,1,1,1,1,1,1,1,1,1,1
10,33,M,29,HEARING,18,ND,5,34,18,0.76, C, N, INCORRECT,10,33,1,1,1,1,1,1,1,1,1,1,1,1,1,1,1
10,34,M,29,HEARING,18,ND,5,34,41,0.675, C, N, INCORRECT,10,34,1,1,1,1,1,1,1,1,1,1,1,1,1,1,1
10,35,M,29,HEARING,18,ND,5,34,51,0.625, C, N, INCORRECT,10,35,1,1,1,1,1,1,1,1,1,1,1,1,1,1,1
10,36,M,29,HEARING,18,ND,5,34,47,0.52, N, N, CORRECT,10,36,1,1,1,1,1,0,1,1,1,1,1,1,1,1,1
10,37,M,29,HEARING,18,ND,5,34,43,0.55, C, C, CORRECT,10,37,1,1,1,1,1,0,0,0,0,0,0,0,0,1,1
10,38,M,29,HEARING,18,ND,5,34,38,0.585, N, N, CORRECT,10,38,1,1,1,1,1,0,0,0,0,0,0,0,0,1,1
10,39,M,29,HEARING,18,ND,5,34,7,0.465, C, N, INCORRECT,10,39,1,1,1,1,1,0,0,0,0,0,0,0,0,1,1
10,40,M,29,HEARING,18,ND,5,34,72,0.42, C, N, INCORRECT,10,40,0,1,1,1,1,0,0,0,0,0,0,0,0,1,1
10,41,M,29,HEARING,18,ND,5,34,34,0.785, C, C, CORRECT,10,41,0,1,1,1,1,0,0,0,0,0,0,0,0,1,1
10,42,M,29,HEARING,18,ND,5,34,30,0.465, C, C, CORRECT,10,42,0,0,1,1,1,0,0,0,0,0,0,0,0,1,1
10,43,M,29,HEARING,18,ND,5,34,35,0.56, C, C, CORRECT,10,43,0,0,1,1,1,0,0,0,0,0,0,0,0,1,1
10,44,M,29,HEARING,18,ND,5,34,39,0.735, N, N, CORRECT,10,44,0,0,1,1,1,0,0,0,0,0,0,0,0,1,1
10,45,M,29,HEARING,18,ND,5,34,66,0.625, C, N, INCORRECT,10,45,0,0,1,1,1,0,0,0,0,0,0,0,0,1,1
10,46,M,29,HEARING,18,ND,5,34,80,0.665, N, N, CORRECT,10,46,0,0,1,1,1,0,0,0,0,0,0,0,0,1,1
10,47,M,29,HEARING,18,ND,5,34,74,0.575, N, N, CORRECT,10,47,0,0,1,0,1,0,0,0,0,0,0,0,0,1,1
10,48,M,29,HEARING,18,ND,5,34,67,0.775, N, N, CORRECT,10,48,0,0,1,0,1,0,0,0,0,0,0,0,0,1,1
10,49,M,29,HEARING,18,ND,5,34,73,1.005, C, N, INCORRECT,10,49,0,0,0,0,1,0,0,0,0,0,0,0,0,1,1
10,50,M,29,HEARING,18,ND,5,34,79,0.9, C, N, INCORRECT,10,50,0,0,0,0,1,0,0,0,0,0,0,0,0,1,1
10,51,M,29,HEARING,18,ND,5,34,60,0.67, C, C, CORRECT,10,51,0,0,0,0,1,0,0,0,0,0,0,0,0,1,1
10,52,M,29,HEARING,18,ND,5,34,44,0.575, C, C, CORRECT,10,52,0,0,0,0,1,0,0,0,0,0,0,0,0,1,1
10,53,M,29,HEARING,18,ND,5,34,77,0.52, C, N, INCORRECT,10,53,0,0,0,0,1,0,0,0,0,0,0,0,0,1,1
10,54,M,29,HEARING,18,ND,5,34,26,0.475, C, C, CORRECT,10,54,0,0,0,0,1,0,0,0,0,0,0,0,0,1,1
10,55,M,29,HEARING,18,ND,5,34,84,0.68, C, C, CORRECT,10,55,0,0,0,0,1,0,0,0,0,0,0,0,0,1,1
10,56,M,29,HEARING,18,ND,5,34,29,1.445, N, C, INCORRECT,10,56,0,0,0,0,1,0,0,0,0,0,0,0,0,1,1
10,57,M,29,HEARING,18,ND,5,34,19,0.75, N, N, CORRECT,10,57,0,0,0,0,1,0,0,0,0,0,0,0,0,1,1
10,58,M,29,HEARING,18,ND,5,34,20,0.565, C, N, INCORRECT,10,58,0,0,0,0,0,0,0,0,0,0,0,0,0,1,1
10,59,M,29,HEARING,18,ND,5,34,62,0.685, C, N, INCORRECT,10,59,0,0,0,0,0,0,0,0,0,0,0,0,0,0,0
10,60,M,29,HEARING,18,ND,5,34,55,0.67, N, N, CORRECT,10,60,0,0,0,0,0,0,0,0,0,0,0,0,0,0,0
10,61,M,29,HEARING,18,ND,5,34,31,0.57, C, C, CORRECT,10,61,0,0,0,0,0,0,0,0,0,0,0,0,0,0,0
10,62,M,29,HEARING,18,ND,5,34,8,0.61, C, N, INCORRECT,10,62,0,0,0,0,0,0,0,0,0,0,0,0,0,0,0
10,63,M,29,HEARING,18,ND,5,34,69,0.735, C, N, INCORRECT,10,63,0,0,0,0,0,0,0,0,0,0,0,0,0,0,0
10,64,M,29,HEARING,18,ND,5,34,5,0.685, C, C, CORRECT,10,64,0,0,0,0,0,0,0,0,0,0,0,0,0,0,0
10,65,M,29,HEARING,18,ND,5,34,23,0.465, C, N, INCORRECT,10,65,0,0,0,0,0,0,0,0,0,0,0,0,0,0,0
10,66,M,29,HEARING,18,ND,5,34,14,0.64, C, C, CORRECT,10,66,0,0,0,0,0,0,0,0,0,0,0,0,0,0,0
10,67,M,29,HEARING,18,ND,5,34,85,0.49, C, N, INCORRECT,10,67,0,0,0,0,0,0,0,0,0,0,0,0,0,0,0
10,68,M,29,HEARING,18,ND,5,34,76,0.585, C, C, CORRECT,10,68,0,0,0,0,0,0,0,0,0,0,0,0,0,0,0
10,69,M,29,HEARING,18,ND,5,34,61,1.67, N, N, CORRECT,10,69,0,0,0,0,0,0,0,0,0,0,0,0,0,0,0
10,70,M,29,HEARING,18,ND,5,34,0,0.47, C, C, CORRECT,10,70,0,0,0,0,0,0,0,0,0,0,0,0,0,0,0
10,71,M,29,HEARING,18,ND,5,34,1,1.04, N, N, CORRECT,10,71,0,0,0,0,0,0,0,0,0,0,0,0,0,0,0
10,72,M,29,HEARING,18,ND,5,34,32,0.595, C, C, CORRECT,10,72,0,0,0,0,0,0,0,0,0,0,0,0,0,0,0
10,73,M,29,HEARING,18,ND,5,34,71,0.545, C, C, CORRECT,10,73,0,0,0,0,0,0,0,0,0,0,0,0,0,0,0
10,74,M,29,HEARING,18,ND,5,34,70,0.5, C, C, CORRECT,10,74,0,0,0,0,0,0,0,0,0,0,0,0,0,0,0
10,75,M,29,HEARING,18,ND,5,34,11,0.49, C, N, INCORRECT,10,75,0,0,0,0,0,0,0,0,0,0,0,0,0,0,0
10,76,M,29,HEARING,18,ND,5,34,13,0.455, C, C, CORRECT,10,76,0,0,0,0,0,0,0,0,0,0,0,0,0,0,0
10,77,M,29,HEARING,18,ND,5,34,21,0.34, C, C, CORRECT,10,77,0,0,0,0,0,0,0,0,0,0,0,0,0,0,0
10,78,M,29,HEARING,18,ND,5,34,33,0.525, C, C, CORRECT,10,78,0,0,0,0,0,0,0,0,0,0,0,0,0,0,0
10,79,M,29,HEARING,18,ND,5,34,49,0.435, C, N, INCORRECT,10,79,0,0,0,0,0,0,0,0,0,0,0,0,0,0,0
10,80,M,29,HEARING,18,ND,5,34,16,0.61, C, C, CORRECT,10,80,0,0,0,0,0,0,0,0,0,0,0,0,0,0,0
10,81,M,29,HEARING,18,ND,5,34,46,0.755, N, N, CORRECT,10,81,0,0,0,0,0,0,0,0,0,0,0,0,0,0,0
10,82,M,29,HEARING,18,ND,5,34,81,0.82, N, N, CORRECT,10,82,0,0,0,0,0,0,0,0,0,0,0,0,0,0,0
10,83,M,29,HEARING,18,ND,5,34,48,0.56, C, C, CORRECT,10,83,0,0,0,0,0,0,0,0,0,0,0,0,0,0,0
10,84,M,29,HEARING,18,ND,5,34,83,0.61, N, N, CORRECT,10,84,0,0,0,0,0,0,0,0,0,0,0,0,0,0,0
10,85,M,29,HEARING,18,ND,5,34,52,0.76, C, C, CORRECT,10,85,0,0,0,0,0,0,0,0,0,0,0,0,0,0,0
10,86,M,29,HEARING,18,ND,5,34,12,0.495, C, N, INCORRECT,10,86,0,0,0,0,0,0,0,0,0,0,0,0,0,0,0
10,87,M,29,HEARING,18,ND,5,34,53,0.61, C, N, INCORRECT,10,87,0,0,0,0,0,0,0,0,0,0,0,0,0,0,0
11,1,F,20,HEARING,14,ND,5,35,72,0.79, N, N, CORRECT,11,1,1,1,1,1,1,1,1,1,1,1,1,1,1,1,1
11,2,F,20,HEARING,14,ND,5,35,31,0.59, N, N, CORRECT,11,2,1,1,1,1,1,1,1,1,1,1,1,1,1,1,1
11,3,F,20,HEARING,14,ND,5,35,56,0.955, N, N, CORRECT,11,3,1,1,1,1,1,1,1,1,1,1,1,1,1,1,1
11,4,F,20,HEARING,14,ND,5,35,71,0.745, N, N, CORRECT,11,4,1,1,1,1,1,1,1,1,1,1,1,1,1,1,1
11,5,F,20,HEARING,14,ND,5,35,42,0.61, C, C, CORRECT,11,5,1,1,1,1,1,1,1,1,1,1,1,1,1,1,1
11,6,F,20,HEARING,14,ND,5,35,11,1.01, N, C, INCORRECT,11,6,1,1,1,1,1,1,1,1,1,1,1,1,1,1,1
11,7,F,20,HEARING,14,ND,5,35,68,2.225, N, N, CORRECT,11,7,1,1,1,1,1,1,1,1,1,1,1,1,1,1,1
11,8,F,20,HEARING,14,ND,5,35,37,0.79, C, C, CORRECT,11,8,1,1,1,1,1,1,1,1,1,1,1,1,1,1,1
11,9,F,20,HEARING,14,ND,5,35,43,0.995, N, N, CORRECT,11,9,1,1,1,1,1,1,1,1,1,1,1,1,1,1,1
11,10,F,20,HEARING,14,ND,5,35,78,0.805, N, N, CORRECT,11,10,1,1,1,1,1,1,1,1,1,1,1,1,1,1,1
11,11,F,20,HEARING,14,ND,5,35,76,0.895, N, N, CORRECT,11,11,1,1,1,1,1,1,1,1,1,1,1,1,1,1,1
11,12,F,20,HEARING,14,ND,5,35,29,0.655, C, C, CORRECT,11,12,1,1,1,1,1,1,1,1,1,1,1,1,1,1,1
11,13,F,20,HEARING,14,ND,5,35,58,0.675, C, C, CORRECT,11,13,1,1,1,1,1,1,1,1,1,1,1,1,1,1,1
11,14,F,20,HEARING,14,ND,5,35,70,0.665, N, N, CORRECT,11,14,1,1,1,1,1,1,1,1,1,1,1,1,1,1,1
11,15,F,20,HEARING,14,ND,5,35,79,1.01, N, N, CORRECT,11,15,1,1,1,1,1,1,1,1,1,1,1,1,1,1,1
11,16,F,20,HEARING,14,ND,5,35,86,0.795, N, N, CORRECT,11,16,1,1,1,1,1,1,1,1,1,1,1,1,1,1,1
11,17,F,20,HEARING,14,ND,5,35,82,0.655, C, C, CORRECT,11,17,1,1,1,1,1,1,1,1,1,1,1,1,1,1,1
11,18,F,20,HEARING,14,ND,5,35,39,0.56, C, C, CORRECT,11,18,1,1,1,1,1,1,1,1,1,1,1,1,1,1,1
11,19,F,20,HEARING,14,ND,5,35,0,0.545, C, C, CORRECT,11,19,1,1,1,1,1,1,1,1,1,1,1,1,1,1,1
11,20,F,20,HEARING,14,ND,5,35,10,0.595, N, N, CORRECT,11,20,1,1,1,1,1,1,1,1,1,1,1,1,1,1,1
11,21,F,20,HEARING,14,ND,5,35,49,0.465, C, C, CORRECT,11,21,1,1,1,1,1,1,1,1,1,1,1,1,1,1,1
11,22,F,20,HEARING,14,ND,5,35,74,0.595, C, C, CORRECT,11,22,1,1,1,1,1,1,1,1,1,1,1,1,1,1,1
11,23,F,20,HEARING,14,ND,5,35,51,1.085, N, N, CORRECT,11,23,1,1,1,1,1,1,1,1,1,1,1,1,1,1,1
11,24,F,20,HEARING,14,ND,5,35,2,0.36, C, N, INCORRECT,11,24,1,1,1,1,1,1,1,1,1,1,1,1,1,1,1
11,25,F,20,HEARING,14,ND,5,35,40,0.495, C, C, CORRECT,11,25,1,1,1,1,1,1,1,1,1,1,1,1,1,1,1
11,26,F,20,HEARING,14,ND,5,35,9,1.02, N, N, CORRECT,11,26,1,1,1,1,1,1,1,1,1,1,1,1,1,1,1
11,27,F,20,HEARING,14,ND,5,35,33,0.64, N, N, CORRECT,11,27,1,1,1,1,1,1,1,1,1,1,1,1,1,1,1
11,28,F,20,HEARING,14,ND,5,35,17,0.485, C, C, CORRECT,11,28,1,1,1,1,1,1,1,1,1,1,1,1,1,1,1
11,29,F,20,HEARING,14,ND,5,35,54,0.665, C, C, CORRECT,11,29,1,1,1,1,1,1,1,1,1,1,1,1,1,1,1
11,30,F,20,HEARING,14,ND,5,35,18,0.755, N, N, CORRECT,11,30,1,1,1,1,1,1,1,1,1,1,1,1,1,1,1
11,31,F,20,HEARING,14,ND,5,35,45,0.67, N, N, CORRECT,11,31,1,1,1,1,1,1,1,1,1,1,1,1,1,1,1
11,32,F,20,HEARING,14,ND,5,35,81,0.99, N, N, CORRECT,11,32,1,1,1,1,1,1,1,1,1,1,1,1,1,1,1
11,33,F,20,HEARING,14,ND,5,35,65,0.53, C, C, CORRECT,11,33,1,1,1,1,1,1,1,1,1,1,1,1,1,1,1
11,34,F,20,HEARING,14,ND,5,35,15,1.8, N, C, INCORRECT,11,34,1,1,1,1,1,1,1,1,1,1,1,1,1,1,1
11,35,F,20,HEARING,14,ND,5,35,27,0.805, C, C, CORRECT,11,35,1,1,1,1,1,1,1,1,1,1,1,1,1,1,1
11,36,F,20,HEARING,14,ND,5,35,12,1.345, N, N, CORRECT,11,36,1,1,1,1,1,1,1,1,1,1,1,1,1,1,1
11,37,F,20,HEARING,14,ND,5,35,64,0.715, N, N, CORRECT,11,37,1,1,1,1,1,1,1,1,1,1,1,1,1,1,1
11,38,F,20,HEARING,14,ND,5,35,73,0.805, N, N, CORRECT,11,38,1,1,1,1,1,1,1,1,1,1,1,1,1,0,0
11,39,F,20,HEARING,14,ND,5,35,35,0.705, C, C, CORRECT,11,39,0,1,1,1,1,1,1,1,1,1,1,1,1,0,0
11,40,F,20,HEARING,14,ND,5,35,7,0.76, C, C, CORRECT,11,40,0,1,1,1,1,1,1,1,1,1,1,1,1,0,0
11,41,F,20,HEARING,14,ND,5,35,20,0.78, N, N, CORRECT,11,41,0,1,1,1,1,1,1,1,1,1,1,1,1,0,0
11,42,F,20,HEARING,14,ND,5,35,52,0.895, C, C, CORRECT,11,42,0,1,1,1,1,1,1,1,1,1,1,1,1,0,0
11,43,F,20,HEARING,14,ND,5,35,13,0.605, N, N, CORRECT,11,43,0,1,1,1,1,1,1,1,1,1,1,1,1,0,0
11,44,F,20,HEARING,14,ND,5,35,47,0.69, N, N, CORRECT,11,44,0,1,1,0,1,1,1,1,1,1,1,1,1,0,0
11,45,F,20,HEARING,14,ND,5,35,1,0.53, C, C, CORRECT,11,45,0,0,1,0,1,1,1,1,1,1,1,1,1,0,0
11,46,F,20,HEARING,14,ND,5,35,50,0.8, N, N, CORRECT,11,46,0,0,1,0,1,1,1,1,1,1,1,1,1,0,0
11,47,F,20,HEARING,14,ND,5,35,32,0.47, C, N, INCORRECT,11,47,0,0,1,0,1,1,1,1,1,1,1,1,1,0,0
11,48,F,20,HEARING,14,ND,5,35,67,0.865, N, N, CORRECT,11,48,0,0,1,0,1,1,1,1,1,1,1,1,1,0,0
11,49,F,20,HEARING,14,ND,5,35,61,0.92, C, C, CORRECT,11,49,0,0,1,0,1,1,1,1,1,1,1,1,1,0,0
11,50,F,20,HEARING,14,ND,5,35,14,1.49, N, N, CORRECT,11,50,0,0,0,0,1,1,1,1,1,1,1,1,1,0,0
11,51,F,20,HEARING,14,ND,5,35,36,0.58, N, N, CORRECT,11,51,0,0,0,0,1,1,1,1,1,1,1,1,1,0,0
11,52,F,20,HEARING,14,ND,5,35,59,0.96, C, C, CORRECT,11,52,0,0,0,0,1,1,1,1,1,1,1,1,1,0,0
11,53,F,20,HEARING,14,ND,5,35,16,0.985, N, N, CORRECT,11,53,0,0,0,0,1,1,1,1,1,1,1,1,1,0,0
11,54,F,20,HEARING,14,ND,5,35,8,0.62, N, N, CORRECT,11,54,0,0,0,0,1,1,0,0,1,0,0,0,0,0,0
11,55,F,20,HEARING,14,ND,5,35,83,0.575, C, C, CORRECT,11,55,0,0,0,0,1,0,0,0,1,0,0,0,0,0,0
11,56,F,20,HEARING,14,ND,5,35,21,0.845, N, N, CORRECT,11,56,0,0,0,0,1,0,0,0,0,0,0,0,0,0,0
11,57,F,20,HEARING,14,ND,5,35,77,0.645, N, N, CORRECT,11,57,0,0,0,0,1,0,0,0,0,0,0,0,0,0,0
11,58,F,20,HEARING,14,ND,5,35,44,0.505, N, N, CORRECT,11,58,0,0,0,0,1,0,0,0,0,0,0,0,0,0,0
11,59,F,20,HEARING,14,ND,5,35,3,0.4, N, N, CORRECT,11,59,0,0,0,0,1,0,0,0,0,0,0,0,0,0,0
11,60,F,20,HEARING,14,ND,5,35,57,0.74, N, N, CORRECT,11,60,0,0,0,0,1,0,0,0,0,0,0,0,0,0,0
11,61,F,20,HEARING,14,ND,5,35,4,0.655, N, N, CORRECT,11,61,0,0,0,0,1,0,0,0,0,0,0,0,0,0,0
11,62,F,20,HEARING,14,ND,5,35,66,0.89, C, C, CORRECT,11,62,0,0,0,0,1,0,0,0,0,0,0,0,0,0,0
11,63,F,20,HEARING,14,ND,5,35,46,0.78, C, C, CORRECT,11,63,0,0,0,0,1,0,0,0,0,0,0,0,0,0,0
11,64,F,20,HEARING,14,ND,5,35,69,1.105, N, N, CORRECT,11,64,0,0,0,0,1,0,0,0,0,0,0,0,0,0,0
11,65,F,20,HEARING,14,ND,5,35,30,1.17, N, N, CORRECT,11,65,0,0,0,0,1,0,0,0,0,0,0,0,0,0,0
11,66,F,20,HEARING,14,ND,5,35,62,0.775, C, C, CORRECT,11,66,0,0,0,0,1,0,0,0,0,0,0,0,0,0,0
11,67,F,20,HEARING,14,ND,5,35,48,0.895, C, C, CORRECT,11,67,0,0,0,0,1,0,0,0,0,0,0,0,0,0,0
11,68,F,20,HEARING,14,ND,5,35,63,0.935, C, C, CORRECT,11,68,0,0,0,0,1,0,0,0,0,0,0,0,0,0,0
11,69,F,20,HEARING,14,ND,5,35,75,0.545, C, C, CORRECT,11,69,0,0,0,0,1,0,0,0,0,0,0,0,0,0,0
11,70,F,20,HEARING,14,ND,5,35,53,0.535, N, N, CORRECT,11,70,0,0,0,0,1,0,0,0,0,0,0,0,0,0,0
11,71,F,20,HEARING,14,ND,5,35,22,0.585, C, C, CORRECT,11,71,0,0,0,0,1,0,0,0,0,0,0,0,0,0,0
11,72,F,20,HEARING,14,ND,5,35,55,0.46, N, N, CORRECT,11,72,0,0,0,0,1,0,0,0,0,0,0,0,0,0,0
11,73,F,20,HEARING,14,ND,5,35,84,0.485, N, N, CORRECT,11,73,0,0,0,0,1,0,0,0,0,0,0,0,0,0,0
11,74,F,20,HEARING,14,ND,5,35,24,1.1, C, N, INCORRECT,11,74,0,0,0,0,1,0,0,0,0,0,0,0,0,0,0
11,75,F,20,HEARING,14,ND,5,35,60,0.61, N, N, CORRECT,11,75,0,0,0,0,1,0,0,0,0,0,0,0,0,0,0
11,76,F,20,HEARING,14,ND,5,35,28,0.28, N, N, CORRECT,11,76,0,0,0,0,1,0,0,0,0,0,0,0,0,0,0
11,77,F,20,HEARING,14,ND,5,35,19,0.965, N, N, CORRECT,11,77,0,0,0,0,1,0,0,0,0,0,0,0,0,0,0
11,78,F,20,HEARING,14,ND,5,35,23,0.715, N, N, CORRECT,11,78,0,0,0,0,1,0,0,0,0,0,0,0,0,0,0
11,79,F,20,HEARING,14,ND,5,35,5,0.55, N, N, CORRECT,11,79,0,0,0,0,1,0,0,0,0,0,0,0,0,0,0
11,80,F,20,HEARING,14,ND,5,35,6,0.625, N, N, CORRECT,11,80,0,0,0,0,1,0,0,0,0,0,0,0,0,0,0
11,81,F,20,HEARING,14,ND,5,35,38,0.59, N, N, CORRECT,11,81,0,0,0,0,1,0,0,0,0,0,0,0,0,0,0
11,82,F,20,HEARING,14,ND,5,35,80,0.795, C, C, CORRECT,11,82,0,0,0,0,1,0,0,0,0,0,0,0,0,0,0
11,83,F,20,HEARING,14,ND,5,35,25,0.6, C, C, CORRECT,11,83,0,0,0,0,0,0,0,0,0,0,0,0,0,0,0
11,84,F,20,HEARING,14,ND,5,35,34,0.635, C, C, CORRECT,11,84,0,0,0,0,0,0,0,0,0,0,0,0,0,0,0
11,85,F,20,HEARING,14,ND,5,35,26,0.51, C, C, CORRECT,11,85,0,0,0,0,0,0,0,0,0,0,0,0,0,0,0
11,86,F,20,HEARING,14,ND,5,35,41,0.48, C, C, CORRECT,11,86,0,0,0,0,0,0,0,0,0,0,0,0,0,0,0
11,87,F,20,HEARING,14,ND,5,35,85,0.765, C, C, CORRECT,11,87,0,0,0,0,0,0,0,0,0,0,0,0,0,0,0
12,1,F,21,HEARING,14,ND,5,34,2,2.095, C, C, CORRECT,12,1,1,1,1,1,1,1,1,1,1,1,1,1,1,1,1
12,2,F,21,HEARING,14,ND,5,34,50,1.015, C, C, CORRECT,12,2,1,1,1,1,1,1,1,1,1,1,1,1,1,1,1
12,3,F,21,HEARING,14,ND,5,34,24,0.51, C, C, CORRECT,12,3,1,1,1,1,1,1,1,1,1,1,1,1,1,1,1
12,4,F,21,HEARING,14,ND,5,34,39,0.505, C, C, CORRECT,12,4,1,1,1,1,1,1,1,1,1,1,1,1,1,1,1
12,5,F,21,HEARING,14,ND,5,34,70,0.495, C, C, CORRECT,12,5,1,1,1,1,1,1,1,1,1,1,1,1,1,1,1
12,6,F,21,HEARING,14,ND,5,34,12,0.625, N, N, CORRECT,12,6,1,1,1,1,1,1,1,1,1,1,1,1,1,1,1
12,7,F,21,HEARING,14,ND,5,34,82,0.63, N, N, CORRECT,12,7,1,1,1,1,1,1,1,1,1,1,1,1,1,1,1
12,8,F,21,HEARING,14,ND,5,34,21,1.25, C, C, CORRECT,12,8,1,1,1,1,1,1,1,1,1,1,1,1,1,1,1
12,9,F,21,HEARING,14,ND,5,34,40,0.55, N, N, CORRECT,12,9,1,1,1,1,1,1,1,1,1,1,1,1,1,1,1
12,10,F,21,HEARING,14,ND,5,34,30,0.835, N, N, CORRECT,12,10,1,1,1,1,1,1,1,1,1,1,1,1,1,1,1
12,11,F,21,HEARING,14,ND,5,34,19,0.99, N, N, CORRECT,12,11,1,1,1,1,1,1,1,1,1,1,1,1,1,1,1
12,12,F,21,HEARING,14,ND,5,34,11,0.665, C, C, CORRECT,12,12,1,1,1,1,1,1,1,1,1,1,1,1,1,1,1
12,13,F,21,HEARING,14,ND,5,34,0,0.66, N, N, CORRECT,12,13,1,1,1,1,1,1,1,1,1,1,1,1,1,1,1
12,14,F,21,HEARING,14,ND,5,34,64,0.615, C, C, CORRECT,12,14,1,1,1,1,1,1,1,1,1,1,1,1,1,1,1
12,15,F,21,HEARING,14,ND,5,34,29,0.505, N, N, CORRECT,12,15,1,1,1,1,1,1,1,1,1,1,1,1,1,1,1
12,16,F,21,HEARING,14,ND,5,34,13,0.46, N, N, CORRECT,12,16,1,1,1,1,1,1,1,1,1,1,1,1,1,1,1
12,17,F,21,HEARING,14,ND,5,34,65,0.55, C, C, CORRECT,12,17,1,1,1,1,1,1,1,1,1,1,1,1,1,1,1
12,18,F,21,HEARING,14,ND,5,34,14,15.45, C, C, CORRECT,12,18,1,1,1,1,1,1,1,1,1,1,1,1,1,1,1
12,19,F,21,HEARING,14,ND,5,34,86,0.795, C, C, CORRECT,12,19,1,1,1,1,1,1,1,1,1,1,1,1,1,1,1
12,20,F,21,HEARING,14,ND,5,34,72,0.59, N, N, CORRECT,12,20,1,1,1,1,1,1,1,1,1,1,1,1,1,1,1
12,21,F,21,HEARING,14,ND,5,34,27,0.74, N, C, INCORRECT,12,21,1,1,1,1,1,1,1,1,1,1,1,1,1,1,1
12,22,F,21,HEARING,14,ND,5,34,25,0.61, C, C, CORRECT,12,22,1,1,1,1,1,1,1,1,1,1,1,1,1,1,1
12,23,F,21,HEARING,14,ND,5,34,61,0.345, N, N, CORRECT,12,23,1,1,1,1,1,1,1,1,1,1,1,1,1,1,1
12,24,F,21,HEARING,14,ND,5,34,75,0.54, C, C, CORRECT,12,24,1,1,1,1,1,1,1,1,1,1,1,1,1,1,1
12,25,F,21,HEARING,14,ND,5,34,17,0.655, N, N, CORRECT,12,25,1,1,1,1,1,1,1,1,1,1,1,1,1,1,1
12,26,F,21,HEARING,14,ND,5,34,26,0.33, N, N, CORRECT,12,26,1,1,1,1,1,1,1,1,1,1,1,1,1,1,1
12,27,F,21,HEARING,14,ND,5,34,63,0.56, N, N, CORRECT,12,27,1,1,1,1,1,1,1,1,1,1,1,1,1,1,1
12,28,F,21,HEARING,14,ND,5,34,57,0.745, C, C, CORRECT,12,28,1,1,1,1,1,1,1,1,1,1,1,1,1,1,1
12,29,F,21,HEARING,14,ND,5,34,54,0.66, N, N, CORRECT,12,29,1,1,1,1,1,1,1,1,1,1,1,1,1,1,1
12,30,F,21,HEARING,14,ND,5,34,33,0.79, C, C, CORRECT,12,30,1,1,1,1,1,1,1,1,1,1,1,1,1,1,1
12,31,F,21,HEARING,14,ND,5,34,15,2.9, N, C, INCORRECT,12,31,1,1,1,1,1,1,1,1,1,1,1,1,1,1,1
12,32,F,21,HEARING,14,ND,5,34,10,0.61, C, N, INCORRECT,12,32,1,1,1,1,1,1,1,1,1,1,1,1,1,1,1
12,33,F,21,HEARING,14,ND,5,34,67,0.97, N, N, CORRECT,12,33,1,1,1,1,1,1,1,1,1,1,1,1,1,1,1
12,34,F,21,HEARING,14,ND,5,34,56,2.785, C, C, CORRECT,12,34,1,1,1,1,1,1,1,1,1,1,1,1,1,1,1
12,35,F,21,HEARING,14,ND,5,34,41,0.485, N, N, CORRECT,12,35,0,1,1,1,1,1,1,1,1,1,1,1,1,1,1
12,36,F,21,HEARING,14,ND,5,34,32,0.725, C, N, INCORRECT,12,36,0,1,1,1,1,1,1,1,1,1,1,1,1,1,1
12,37,F,21,HEARING,14,ND,5,34,60,0.405, C, C, CORRECT,12,37,0,1,1,1,1,1,1,1,1,1,1,1,1,1,1
12,38,F,21,HEARING,14,ND,5,34,51,0.37, C, C, CORRECT,12,38,0,1,1,1,1,1,1,1,1,1,1,1,1,0,0
12,39,F,21,HEARING,14,ND,5,34,42,0.555, N, N, CORRECT,12,39,0,1,1,1,1,1,1,1,1,1,1,1,1,0,0
12,40,F,21,HEARING,14,ND,5,34,73,1.785, N, N, CORRECT,12,40,0,1,1,1,1,1,1,1,1,1,1,1,1,0,0
12,41,F,21,HEARING,14,ND,5,34,44,0.915, C, C, CORRECT,12,41,0,1,1,1,1,1,1,1,1,1,1,1,1,0,0
12,42,F,21,HEARING,14,ND,5,34,36,0.375, C, C, CORRECT,12,42,0,1,1,1,1,1,1,1,1,1,1,1,1,0,0
12,43,F,21,HEARING,14,ND,5,34,66,0.83, N, N, CORRECT,12,43,0,1,1,1,1,1,1,1,1,1,1,1,1,0,0
12,44,F,21,HEARING,14,ND,5,34,52,0.855, N, N, CORRECT,12,44,0,1,1,0,1,1,1,1,1,1,1,1,1,0,0
12,45,F,21,HEARING,14,ND,5,34,4,0.835, N, N, CORRECT,12,45,0,0,1,0,1,1,1,1,1,1,1,1,1,0,0
12,46,F,21,HEARING,14,ND,5,34,38,3.77, N, N, CORRECT,12,46,0,0,1,0,1,1,1,1,1,1,1,1,1,0,0
12,47,F,21,HEARING,14,ND,5,34,22,0.756, C, N, INCORRECT,12,47,0,0,1,0,1,1,1,1,1,1,1,1,1,0,0
12,48,F,21,HEARING,14,ND,5,34,48,0.51, N, N, CORRECT,12,48,0,0,1,0,1,1,1,1,1,0,1,1,1,0,0
12,49,F,21,HEARING,14,ND,5,34,23,0.535, N, N, CORRECT,12,49,0,0,1,0,1,1,1,1,1,0,1,1,1,0,0
12,50,F,21,HEARING,14,ND,5,34,35,0.365, N, N, CORRECT,12,50,0,0,1,0,1,1,1,0,1,0,1,1,1,0,0
12,51,F,21,HEARING,14,ND,5,34,49,0.92, N, N, CORRECT,12,51,0,0,1,0,1,1,1,0,1,0,1,1,1,0,0
12,52,F,21,HEARING,14,ND,5,34,20,0.415, C, C, CORRECT,12,52,0,0,1,0,1,1,1,0,1,0,1,1,1,0,0
12,53,F,21,HEARING,14,ND,5,34,6,0.5, C, C, CORRECT,12,53,0,0,1,0,1,1,1,0,1,0,1,1,1,0,0
12,54,F,21,HEARING,14,ND,5,34,81,0.535, N, N, CORRECT,12,54,0,0,0,0,1,1,0,0,0,0,0,0,0,0,0
12,55,F,21,HEARING,14,ND,5,34,3,0.665, N, N, CORRECT,12,55,0,0,0,0,1,0,0,0,0,0,0,0,0,0,0
12,56,F,21,HEARING,14,ND,5,34,74,0.555, C, C, CORRECT,12,56,0,0,0,0,1,0,0,0,0,0,0,0,0,0,0
12,57,F,21,HEARING,14,ND,5,34,9,0.665, N, N, CORRECT,12,57,0,0,0,0,1,0,0,0,0,0,0,0,0,0,0
12,58,F,21,HEARING,14,ND,5,34,47,0.47, C, C, CORRECT,12,58,0,0,0,0,1,0,0,0,0,0,0,0,0,0,0
12,59,F,21,HEARING,14,ND,5,34,46,1.47, C, N, INCORRECT,12,59,0,0,0,0,1,0,0,0,0,0,0,0,0,0,0
12,60,F,21,HEARING,14,ND,5,34,1,1.195, C, C, CORRECT,12,60,0,0,0,0,1,0,0,0,0,0,0,0,0,0,0
12,61,F,21,HEARING,14,ND,5,34,77,0.87, C, C, CORRECT,12,61,0,0,0,0,1,0,0,0,0,0,0,0,0,0,0
12,62,F,21,HEARING,14,ND,5,34,84,0.57, N, N, CORRECT,12,62,0,0,0,0,1,0,0,0,0,0,0,0,0,0,0
12,63,F,21,HEARING,14,ND,5,34,78,0.465, C, C, CORRECT,12,63,0,0,0,0,1,0,0,0,0,0,0,0,0,0,0
12,64,F,21,HEARING,14,ND,5,34,59,0.515, N, N, CORRECT,12,64,0,0,0,0,1,0,0,0,0,0,0,0,0,0,0
12,65,F,21,HEARING,14,ND,5,34,68,0.72, N, N, CORRECT,12,65,0,0,0,0,1,0,0,0,0,0,0,0,0,0,0
12,66,F,21,HEARING,14,ND,5,34,80,0.475, C, C, CORRECT,12,66,0,0,0,0,1,0,0,0,0,0,0,0,0,0,0
12,67,F,21,HEARING,14,ND,5,34,18,2.63, N, N, CORRECT,12,67,0,0,0,0,1,0,0,0,0,0,0,0,0,0,0
12,68,F,21,HEARING,14,ND,5,34,5,0.59, N, N, CORRECT,12,68,0,0,0,0,1,0,0,0,0,0,0,0,0,0,0
12,69,F,21,HEARING,14,ND,5,34,69,0.685, N, N, CORRECT,12,69,0,0,0,0,1,0,0,0,0,0,0,0,0,0,0
12,70,F,21,HEARING,14,ND,5,34,43,0.54, N, N, CORRECT,12,70,0,0,0,0,1,0,0,0,0,0,0,0,0,0,0
12,71,F,21,HEARING,14,ND,5,34,79,0.65, C, C, CORRECT,12,71,0,0,0,0,1,0,0,0,0,0,0,0,0,0,0
12,72,F,21,HEARING,14,ND,5,34,71,0.69, N, N, CORRECT,12,72,0,0,0,0,1,0,0,0,0,0,0,0,0,0,0
12,73,F,21,HEARING,14,ND,5,34,76,0.415, N, N, CORRECT,12,73,0,0,0,0,1,0,0,0,0,0,0,0,0,0,0
12,74,F,21,HEARING,14,ND,5,34,28,0.84, N, C, INCORRECT,12,74,0,0,0,0,1,0,0,0,0,0,0,0,0,0,0
12,75,F,21,HEARING,14,ND,5,34,37,0.39, N, N, CORRECT,12,75,0,0,0,0,1,0,0,0,0,0,0,0,0,0,0
12,76,F,21,HEARING,14,ND,5,34,85,0.37, N, N, CORRECT,12,76,0,0,0,0,1,0,0,0,0,0,0,0,0,0,0
12,77,F,21,HEARING,14,ND,5,34,7,0.405, N, N, CORRECT,12,77,0,0,0,0,1,0,0,0,0,0,0,0,0,0,0
12,78,F,21,HEARING,14,ND,5,34,16,0.57, N, C, INCORRECT,12,78,0,0,0,0,1,0,0,0,0,0,0,0,0,0,0
12,79,F,21,HEARING,14,ND,5,34,8,0.805, N, N, CORRECT,12,79,0,0,0,0,0,0,0,0,0,0,0,0,0,0,0
12,80,F,21,HEARING,14,ND,5,34,45,0.405, N, N, CORRECT,12,80,0,0,0,0,0,0,0,0,0,0,0,0,0,0,0
12,81,F,21,HEARING,14,ND,5,34,62,0.53, C, C, CORRECT,12,81,0,0,0,0,0,0,0,0,0,0,0,0,0,0,0
12,82,F,21,HEARING,14,ND,5,34,34,0.51, N, N, CORRECT,12,82,0,0,0,0,0,0,0,0,0,0,0,0,0,0,0
12,83,F,21,HEARING,14,ND,5,34,83,0.555, N, N, CORRECT,12,83,0,0,0,0,0,0,0,0,0,0,0,0,0,0,0
12,84,F,21,HEARING,14,ND,5,34,55,0.54, C, C, CORRECT,12,84,0,0,0,0,0,0,0,0,0,0,0,0,0,0,0
12,85,F,21,HEARING,14,ND,5,34,58,0.515, C, C, CORRECT,12,85,0,0,0,0,0,0,0,0,0,0,0,0,0,0,0
12,86,F,21,HEARING,14,ND,5,34,53,0.74, N, N, CORRECT,12,86,0,0,0,0,0,0,0,0,0,0,0,0,0,0,0
12,87,F,21,HEARING,14,ND,5,34,31,0.5, C, N, INCORRECT,12,87,0,0,0,0,0,0,0,0,0,0,0,0,0,0,0
13,1,M,24,HEARING,15,ND,7,36,58,2.09, N, N, CORRECT,13,1,1,1,1,1,1,1,1,1,1,1,1,1,1,1,1
13,2,M,24,HEARING,15,ND,7,36,14,1.28, N, N, CORRECT,13,2,1,1,1,1,1,1,1,1,1,1,1,1,1,1,1
13,3,M,24,HEARING,15,ND,7,36,70,1.465, C, N, INCORRECT,13,3,1,1,1,1,1,1,1,1,1,1,1,1,1,1,1
13,4,M,24,HEARING,15,ND,7,36,64,1.085, N, N, CORRECT,13,4,1,1,1,1,1,1,1,1,1,1,1,1,1,1,1
13,5,M,24,HEARING,15,ND,7,36,61,0.95, C, C, CORRECT,13,5,1,1,1,1,1,1,1,1,1,1,1,1,1,1,1
13,6,M,24,HEARING,15,ND,7,36,75,0.56, C, C, CORRECT,13,6,1,1,1,1,1,1,1,1,1,1,1,1,1,1,1
13,7,M,24,HEARING,15,ND,7,36,66,0.765, N, N, CORRECT,13,7,1,1,1,1,1,1,1,1,1,1,1,1,1,1,1
13,8,M,24,HEARING,15,ND,7,36,3,0.78, C, C, CORRECT,13,8,1,1,1,1,1,1,1,1,1,1,1,1,1,1,1
13,9,M,24,HEARING,15,ND,7,36,52,0.965, N, N, CORRECT,13,9,1,1,1,1,1,1,1,1,1,1,1,1,1,1,1
13,10,M,24,HEARING,15,ND,7,36,39,0.81, N, N, CORRECT,13,10,1,1,1,1,1,1,1,1,1,1,1,1,1,1,1
13,11,M,24,HEARING,15,ND,7,36,56,0.83, N, N, CORRECT,13,11,1,1,1,1,1,1,1,1,1,1,1,1,1,1,1
13,12,M,24,HEARING,15,ND,7,36,33,0.81, N, N, CORRECT,13,12,1,1,1,1,1,1,1,1,1,1,1,1,1,1,1
13,13,M,24,HEARING,15,ND,7,36,8,0.865, N, N, CORRECT,13,13,1,1,1,1,1,1,1,1,1,1,1,1,1,1,1
13,14,M,24,HEARING,15,ND,7,36,71,0.78, C, C, CORRECT,13,14,1,1,1,1,1,1,1,1,1,1,1,1,1,1,1
13,15,M,24,HEARING,15,ND,7,36,60,0.735, C, C, CORRECT,13,15,1,1,1,1,1,1,1,1,1,1,1,1,1,1,1
13,16,M,24,HEARING,15,ND,7,36,38,0.765, N, N, CORRECT,13,16,1,1,1,1,1,1,1,1,1,1,1,1,1,1,1
13,17,M,24,HEARING,15,ND,7,36,6,1.05, N, N, CORRECT,13,17,1,1,1,1,1,1,1,1,1,1,1,1,1,1,1
13,18,M,24,HEARING,15,ND,7,36,13,1.16, C, C, CORRECT,13,18,1,1,1,1,1,1,1,1,1,1,1,1,1,1,1
13,19,M,24,HEARING,15,ND,7,36,74,0.56, C, C, CORRECT,13,19,1,1,1,1,1,1,1,1,1,1,1,1,1,1,1
13,20,M,24,HEARING,15,ND,7,36,41,0.66, N, N, CORRECT,13,20,1,1,1,1,1,1,1,1,1,1,1,1,1,1,1
13,21,M,24,HEARING,15,ND,7,36,30,0.915, N, N, CORRECT,13,21,1,1,1,1,1,1,1,1,1,1,1,1,1,1,1
13,22,M,24,HEARING,15,ND,7,36,76,1.2, C, C, CORRECT,13,22,1,1,1,1,1,1,1,1,1,1,1,1,1,1,1
13,23,M,24,HEARING,15,ND,7,36,17,0.78, C, C, CORRECT,13,23,1,1,1,1,1,1,1,1,1,1,1,1,1,1,1
13,24,M,24,HEARING,15,ND,7,36,25,0.56, C, C, CORRECT,13,24,1,1,1,1,1,1,1,1,1,1,1,1,1,1,1
13,25,M,24,HEARING,15,ND,7,36,59,0.71, C, C, CORRECT,13,25,1,1,1,1,1,1,1,1,1,1,1,1,1,1,1
13,26,M,24,HEARING,15,ND,7,36,24,0.57, C, C, CORRECT,13,26,1,1,1,1,1,1,1,1,1,1,1,1,1,1,1
13,27,M,24,HEARING,15,ND,7,36,7,0.49, C, C, CORRECT,13,27,1,1,1,1,1,1,1,1,1,1,1,1,1,1,1
13,28,M,24,HEARING,15,ND,7,36,49,0.495, C, C, CORRECT,13,28,1,1,1,1,1,1,1,1,1,1,1,1,1,1,1
13,29,M,24,HEARING,15,ND,7,36,12,0.71, N, N, CORRECT,13,29,1,1,1,1,1,1,1,1,1,1,1,1,1,1,1
13,30,M,24,HEARING,15,ND,7,36,50,0.795, N, N, CORRECT,13,30,1,1,1,1,1,1,1,1,1,1,1,1,1,1,1
13,31,M,24,HEARING,15,ND,7,36,81,1.445, N, N, CORRECT,13,31,1,1,1,1,1,1,1,1,1,1,1,1,1,1,1
13,32,M,24,HEARING,15,ND,7,36,31,0.89, N, N, CORRECT,13,32,1,1,1,1,1,1,1,1,1,1,1,1,1,1,1
13,33,M,24,HEARING,15,ND,7,36,23,0.665, N, N, CORRECT,13,33,1,1,1,1,1,1,1,1,1,1,1,1,1,1,1
13,34,M,24,HEARING,15,ND,7,36,2,0.73, N, N, CORRECT,13,34,1,1,1,1,1,1,1,1,1,1,1,1,1,1,1
13,35,M,24,HEARING,15,ND,7,36,57,0.53, N, N, CORRECT,13,35,1,1,1,1,1,1,1,1,1,1,1,1,1,1,1
13,36,M,24,HEARING,15,ND,7,36,67,0.4, N, N, CORRECT,13,36,1,1,1,1,1,1,1,1,1,1,1,1,1,1,1
13,37,M,24,HEARING,15,ND,7,36,68,0.72, C, C, CORRECT,13,37,1,1,1,1,1,1,1,1,1,1,1,1,1,1,1
13,38,M,24,HEARING,15,ND,7,36,72,0.65, N, N, CORRECT,13,38,1,1,1,1,1,1,1,1,1,1,1,1,1,0,0
13,39,M,24,HEARING,15,ND,7,36,0,0.55, N, N, CORRECT,13,39,1,1,1,1,1,1,1,1,1,1,1,1,1,0,0
13,40,M,24,HEARING,15,ND,7,36,45,0.43, N, N, CORRECT,13,40,1,1,1,1,1,1,1,1,1,1,1,1,1,0,0
13,41,M,24,HEARING,15,ND,7,36,22,0.475, N, N, CORRECT,13,41,0,1,1,1,1,1,1,1,1,1,1,1,1,0,0
13,42,M,24,HEARING,15,ND,7,36,5,0.72, C, C, CORRECT,13,42,0,1,1,1,1,1,1,1,1,1,1,1,1,0,0
13,43,M,24,HEARING,15,ND,7,36,46,1, C, C, CORRECT,13,43,0,0,1,1,1,1,1,1,1,1,1,1,1,0,0
13,44,M,24,HEARING,15,ND,7,36,1,0.97, N, N, CORRECT,13,44,0,0,1,1,1,1,1,1,1,1,1,1,1,0,0
13,45,M,24,HEARING,15,ND,7,36,63,0.735, C, C, CORRECT,13,45,0,0,1,1,1,1,1,1,1,1,1,1,1,0,0
13,46,M,24,HEARING,15,ND,7,36,79,0.675, C, C, CORRECT,13,46,0,0,1,0,1,1,1,1,1,1,1,1,1,0,0
13,47,M,24,HEARING,15,ND,7,36,77,0.785, C, C, CORRECT,13,47,0,0,1,0,1,1,1,1,1,1,1,1,1,0,0
13,48,M,24,HEARING,15,ND,7,36,26,0.7, C, C, CORRECT,13,48,0,0,0,0,1,1,1,1,1,1,1,1,1,0,0
13,49,M,24,HEARING,15,ND,7,36,54,0.9, N, N, CORRECT,13,49,0,0,0,0,1,1,1,1,1,1,1,1,1,0,0
13,50,M,24,HEARING,15,ND,7,36,65,0.975, C, C, CORRECT,13,50,0,0,0,0,1,1,1,1,1,1,1,1,1,0,0
13,51,M,24,HEARING,15,ND,7,36,55,0.69, C, C, CORRECT,13,51,0,0,0,0,1,1,1,1,1,1,1,1,1,0,0
13,52,M,24,HEARING,15,ND,7,36,51,0.655, N, N, CORRECT,13,52,0,0,0,0,1,1,1,1,1,1,1,1,1,0,0
13,53,M,24,HEARING,15,ND,7,36,18,0.725, N, N, CORRECT,13,53,0,0,0,0,1,1,1,1,1,1,1,1,1,0,0
13,54,M,24,HEARING,15,ND,7,36,86,0.87, C, C, CORRECT,13,54,0,0,0,0,1,1,0,0,0,0,0,0,0,0,0
13,55,M,24,HEARING,15,ND,7,36,11,0.64, C, C, CORRECT,13,55,0,0,0,0,1,0,0,0,0,0,0,0,0,0,0
13,56,M,24,HEARING,15,ND,7,36,69,0.62, N, N, CORRECT,13,56,0,0,0,0,1,0,0,0,0,0,0,0,0,0,0
13,57,M,24,HEARING,15,ND,7,36,83,1.145, N, N, CORRECT,13,57,0,0,0,0,1,0,0,0,0,0,0,0,0,0,0
13,58,M,24,HEARING,15,ND,7,36,40,0.615, C, C, CORRECT,13,58,0,0,0,0,1,0,0,0,0,0,0,0,0,0,0
13,59,M,24,HEARING,15,ND,7,36,19,0.62, N, N, CORRECT,13,59,0,0,0,0,1,0,0,0,0,0,0,0,0,0,0
13,60,M,24,HEARING,15,ND,7,36,78,0.74, N, N, CORRECT,13,60,0,0,0,0,1,0,0,0,0,0,0,0,0,0,0
13,61,M,24,HEARING,15,ND,7,36,82,0.645, N, N, CORRECT,13,61,0,0,0,0,1,0,0,0,0,0,0,0,0,0,0
13,62,M,24,HEARING,15,ND,7,36,84,0.865, N, N, CORRECT,13,62,0,0,0,0,1,0,0,0,0,0,0,0,0,0,0
13,63,M,24,HEARING,15,ND,7,36,85,0.635, N, N, CORRECT,13,63,0,0,0,0,1,0,0,0,0,0,0,0,0,0,0
13,64,M,24,HEARING,15,ND,7,36,48,1.28, C, C, CORRECT,13,64,0,0,0,0,1,0,0,0,0,0,0,0,0,0,0
13,65,M,24,HEARING,15,ND,7,36,36,0.715, C, C, CORRECT,13,65,0,0,0,0,1,0,0,0,0,0,0,0,0,0,0
13,66,M,24,HEARING,15,ND,7,36,27,0.81, N, N, CORRECT,13,66,0,0,0,0,1,0,0,0,0,0,0,0,0,0,0
13,67,M,24,HEARING,15,ND,7,36,16,0.705, C, C, CORRECT,13,67,0,0,0,0,1,0,0,0,0,0,0,0,0,0,0
13,68,M,24,HEARING,15,ND,7,36,21,0.635, N, N, CORRECT,13,68,0,0,0,0,1,0,0,0,0,0,0,0,0,0,0
13,69,M,24,HEARING,15,ND,7,36,20,0.73, C, C, CORRECT,13,69,0,0,0,0,1,0,0,0,0,0,0,0,0,0,0
13,70,M,24,HEARING,15,ND,7,36,34,0.61, C, C, CORRECT,13,70,0,0,0,0,1,0,0,0,0,0,0,0,0,0,0
13,71,M,24,HEARING,15,ND,7,36,47,0.645, N, N, CORRECT,13,71,0,0,0,0,1,0,0,0,0,0,0,0,0,0,0
13,72,M,24,HEARING,15,ND,7,36,15,0.615, N, N, CORRECT,13,72,0,0,0,0,1,0,0,0,0,0,0,0,0,0,0
13,73,M,24,HEARING,15,ND,7,36,9,1.275, N, N, CORRECT,13,73,0,0,0,0,1,0,0,0,0,0,0,0,0,0,0
13,74,M,24,HEARING,15,ND,7,36,37,0.82, C, C, CORRECT,13,74,0,0,0,0,1,0,0,0,0,0,0,0,0,0,0
13,75,M,24,HEARING,15,ND,7,36,53,0.66, N, N, CORRECT,13,75,0,0,0,0,1,0,0,0,0,0,0,0,0,0,0
13,76,M,24,HEARING,15,ND,7,36,29,0.705, C, C, CORRECT,13,76,0,0,0,0,1,0,0,0,0,0,0,0,0,0,0
13,77,M,24,HEARING,15,ND,7,36,44,0.64, C, C, CORRECT,13,77,0,0,0,0,1,0,0,0,0,0,0,0,0,0,0
13,78,M,24,HEARING,15,ND,7,36,62,0.66, N, N, CORRECT,13,78,0,0,0,0,1,0,0,0,0,0,0,0,0,0,0
13,79,M,24,HEARING,15,ND,7,36,80,0.58, N, N, CORRECT,13,79,0,0,0,0,1,0,0,0,0,0,0,0,0,0,0
13,80,M,24,HEARING,15,ND,7,36,28,0.715, C, C, CORRECT,13,80,0,0,0,0,1,0,0,0,0,0,0,0,0,0,0
13,81,M,24,HEARING,15,ND,7,36,4,0.595, N, N, CORRECT,13,81,0,0,0,0,1,0,0,0,0,0,0,0,0,0,0
13,82,M,24,HEARING,15,ND,7,36,10,0.61, N, N, CORRECT,13,82,0,0,0,0,1,0,0,0,0,0,0,0,0,0,0
13,83,M,24,HEARING,15,ND,7,36,43,0.795, N, N, CORRECT,13,83,0,0,0,0,1,0,0,0,0,0,0,0,0,0,0
13,84,M,24,HEARING,15,ND,7,36,35,0.655, C, C, CORRECT,13,84,0,0,0,0,1,0,0,0,0,0,0,0,0,0,0
13,85,M,24,HEARING,15,ND,7,36,73,0.72, N, N, CORRECT,13,85,0,0,0,0,1,0,0,0,0,0,0,0,0,0,0
13,86,M,24,HEARING,15,ND,7,36,42,0.745, N, N, CORRECT,13,86,0,0,0,0,1,0,0,0,0,0,0,0,0,0,0
13,87,M,24,HEARING,15,ND,7,36,32,0.535, N, N, CORRECT,13,87,0,0,0,0,0,0,0,0,0,0,0,0,0,0,0
20,1,F,44,HEARING,12,ND,6,35,17,1.025, N, N, CORRECT,14,1,1,1,1,1,1,1,1,1,1,1,1,1,1,1,1
